time,yaw,pitch,roll,acc x,acc y,acc z
2019-06-26 15:34:46.899353,179.29,-78.92,-0.95,-4045,-59,-843
2019-06-26 15:34:46.919357,179.17,-78.95,-1.08,-4090,-45,-870
2019-06-26 15:34:46.939361,179.05,-78.99,-1.22,-4108,-33,-862
2019-06-26 15:34:46.956365,178.92,-79.03,-1.36,-4117,-28,-868
2019-06-26 15:34:46.977370,178.82,-79.06,-1.49,-4126,-16,-866
2019-06-26 15:34:46.997374,178.70,-79.09,-1.62,-4125,-11,-864
2019-06-26 15:34:47.018379,178.57,-79.12,-1.75,-4120,-5,-856
2019-06-26 15:34:47.038387,178.43,-79.15,-1.88,-4120,2,-870
2019-06-26 15:34:47.058387,178.32,-79.17,-2.00,-4118,10,-859
2019-06-26 15:34:47.078392,178.18,-79.20,-2.12,-4115,21,-869
2019-06-26 15:34:47.099397,178.07,-79.22,-2.24,-4113,30,-866
2019-06-26 15:34:47.119401,177.93,-79.24,-2.36,-4110,51,-884
2019-06-26 15:34:47.136405,177.84,-79.26,-2.47,-4120,53,-901
2019-06-26 15:34:47.157410,177.69,-79.27,-2.59,-4119,52,-919
2019-06-26 15:34:47.177415,177.54,-79.28,-2.71,-4116,60,-896
2019-06-26 15:34:47.198420,177.42,-79.29,-2.82,-4117,62,-893
2019-06-26 15:34:47.218424,177.29,-79.31,-2.93,-4123,74,-902
2019-06-26 15:34:47.238428,177.16,-79.32,-3.04,-4124,81,-900
2019-06-26 15:34:47.258433,177.03,-79.33,-3.14,-4114,97,-904
2019-06-26 15:34:47.279438,176.90,-79.34,-3.25,-4116,102,-903
2019-06-26 15:34:47.296442,176.74,-79.34,-3.35,-4119,109,-928
2019-06-26 15:34:47.317446,176.60,-79.35,-3.45,-4114,122,-921
2019-06-26 15:34:47.337451,176.46,-79.35,-3.55,-4119,125,-925
2019-06-26 15:34:47.357456,176.32,-79.36,-3.65,-4126,129,-922
2019-06-26 15:34:47.378460,176.21,-79.36,-3.75,-4130,137,-922
2019-06-26 15:34:47.398464,176.04,-79.36,-3.84,-4128,144,-930
2019-06-26 15:34:47.418469,175.92,-79.36,-3.94,-4129,163,-931
2019-06-26 15:34:47.439474,175.78,-79.36,-4.03,-4119,162,-925
2019-06-26 15:34:47.459478,175.63,-79.36,-4.12,-4131,173,-927
2019-06-26 15:34:47.476483,175.50,-79.36,-4.21,-4121,180,-926
2019-06-26 15:34:47.497487,175.35,-79.36,-4.30,-4121,176,-956
2019-06-26 15:34:47.517491,175.20,-79.36,-4.38,-4126,185,-947
2019-06-26 15:34:47.538496,175.05,-79.35,-4.47,-4117,186,-945
2019-06-26 15:34:47.558501,174.89,-79.34,-4.55,-4115,196,-930
2019-06-26 15:34:47.578505,174.73,-79.34,-4.63,-4124,211,-933
2019-06-26 15:34:47.598510,174.60,-79.33,-4.72,-4124,219,-938
2019-06-26 15:34:47.619514,174.47,-79.33,-4.79,-4119,220,-950
2019-06-26 15:34:47.639518,174.31,-79.32,-4.88,-4124,224,-964
2019-06-26 15:34:47.656523,174.15,-79.31,-4.95,-4124,232,-970
2019-06-26 15:34:47.677528,173.99,-79.30,-5.03,-4121,233,-965
2019-06-26 15:34:47.697531,173.85,-79.29,-5.10,-4123,235,-969
2019-06-26 15:34:47.717536,173.68,-79.29,-5.17,-4119,247,-968
2019-06-26 15:34:47.738541,173.55,-79.28,-5.24,-4123,251,-966
2019-06-26 15:34:47.758546,173.41,-79.27,-5.32,-4119,256,-967
2019-06-26 15:34:47.779550,173.27,-79.26,-5.38,-4122,261,-974
2019-06-26 15:34:47.799556,173.10,-79.25,-5.45,-4123,261,-967
2019-06-26 15:34:47.816560,172.95,-79.24,-5.52,-4127,259,-965
2019-06-26 15:34:47.837564,172.82,-79.23,-5.59,-4117,266,-973
2019-06-26 15:34:47.857568,172.63,-79.22,-5.65,-4121,274,-981
2019-06-26 15:34:47.877572,172.49,-79.21,-5.71,-4128,283,-976
2019-06-26 15:34:47.898577,172.34,-79.20,-5.78,-4129,287,-979
2019-06-26 15:34:47.918581,172.17,-79.19,-5.84,-4125,293,-979
2019-06-26 15:34:47.938586,172.03,-79.17,-5.91,-4125,298,-994
2019-06-26 15:34:47.959590,171.88,-79.16,-5.96,-4129,309,-997
2019-06-26 15:34:47.979596,171.71,-79.15,-6.02,-4132,312,-998
2019-06-26 15:34:47.996601,171.55,-79.14,-6.08,-4129,317,-987
2019-06-26 15:34:48.017605,171.41,-79.12,-6.13,-4126,311,-997
2019-06-26 15:34:48.037653,171.26,-79.11,-6.19,-4127,312,-1002
2019-06-26 15:34:48.057657,171.11,-79.10,-6.25,-4122,321,-998
2019-06-26 15:34:48.078662,170.96,-79.08,-6.30,-4136,320,-991
2019-06-26 15:34:48.098648,170.79,-79.08,-6.36,-4131,332,-989
2019-06-26 15:34:48.119653,170.62,-79.06,-6.41,-4123,338,-1006
2019-06-26 15:34:48.139659,170.47,-79.05,-6.47,-4124,334,-998
2019-06-26 15:34:48.159684,170.34,-79.03,-6.52,-4131,340,-996
2019-06-26 15:34:48.176684,170.15,-79.02,-6.57,-4135,344,-998
2019-06-26 15:34:48.197689,170.03,-79.01,-6.62,-4131,348,-1001
2019-06-26 15:34:48.217693,169.87,-79.00,-6.66,-4130,349,-1002
2019-06-26 15:34:48.237698,169.68,-78.99,-6.72,-4132,354,-1002
2019-06-26 15:34:48.258703,169.56,-78.97,-6.77,-4130,364,-1010
2019-06-26 15:34:48.278707,169.40,-78.96,-6.81,-4136,357,-1020
2019-06-26 15:34:48.299694,169.28,-78.95,-6.85,-4135,361,-1037
2019-06-26 15:34:48.319716,169.13,-78.93,-6.90,-4126,366,-1040
2019-06-26 15:34:48.336720,168.97,-78.92,-6.95,-4126,362,-1021
2019-06-26 15:34:48.357706,168.82,-78.90,-6.99,-4126,367,-1021
2019-06-26 15:34:48.377711,168.66,-78.89,-7.04,-4125,369,-1016
2019-06-26 15:34:48.397716,168.51,-78.87,-7.08,-4126,370,-1020
2019-06-26 15:34:48.418720,168.37,-78.86,-7.13,-4133,378,-1026
2019-06-26 15:34:48.438725,168.19,-78.85,-7.17,-4133,381,-1023
2019-06-26 15:34:48.458729,168.05,-78.84,-7.21,-4135,387,-1010
2019-06-26 15:34:48.479734,167.90,-78.82,-7.24,-4129,397,-1009
2019-06-26 15:34:48.499739,167.73,-78.82,-7.28,-4130,399,-1019
2019-06-26 15:34:48.516744,167.60,-78.80,-7.32,-4135,399,-1016
2019-06-26 15:34:48.537747,167.45,-78.79,-7.36,-4129,401,-1026
2019-06-26 15:34:48.557752,167.29,-78.77,-7.39,-4121,397,-1027
2019-06-26 15:34:48.577756,167.15,-78.76,-7.43,-4126,401,-1009
2019-06-26 15:34:48.598779,166.98,-78.76,-7.47,-4133,405,-1002
2019-06-26 15:34:48.618765,166.85,-78.75,-7.50,-4125,406,-1010
2019-06-26 15:34:48.639770,166.69,-78.74,-7.54,-4124,410,-1022
2019-06-26 15:34:48.659775,166.54,-78.72,-7.57,-4130,410,-1039
2019-06-26 15:34:48.679780,166.41,-78.71,-7.60,-4132,417,-1038
2019-06-26 15:34:48.696783,166.20,-78.71,-7.64,-4133,425,-1028
2019-06-26 15:34:48.717788,166.07,-78.69,-7.67,-4134,421,-1045
2019-06-26 15:34:48.737792,165.91,-78.68,-7.70,-4126,427,-1045
2019-06-26 15:34:48.758797,165.80,-78.66,-7.73,-4132,430,-1047
2019-06-26 15:34:48.778802,165.67,-78.65,-7.76,-4128,435,-1050
2019-06-26 15:34:48.798806,165.51,-78.64,-7.80,-4120,434,-1045
2019-06-26 15:34:48.819811,165.35,-78.63,-7.83,-4122,431,-1060
2019-06-26 15:34:48.839815,165.22,-78.62,-7.86,-4132,431,-1053
2019-06-26 15:34:48.856819,165.06,-78.61,-7.88,-4130,435,-1048
2019-06-26 15:34:48.877826,164.93,-78.60,-7.91,-4129,441,-1053
2019-06-26 15:34:48.897828,164.78,-78.58,-7.94,-4131,440,-1077
2019-06-26 15:34:48.917833,164.68,-78.57,-7.97,-4128,443,-1077
2019-06-26 15:34:48.938838,164.54,-78.56,-7.99,-4141,446,-1060
2019-06-26 15:34:48.958842,164.41,-78.55,-8.02,-4135,435,-1056
2019-06-26 15:34:48.979865,164.24,-78.54,-8.05,-4127,439,-1044
2019-06-26 15:34:48.999851,164.11,-78.53,-8.08,-4128,443,-1052
2019-06-26 15:34:49.019874,163.95,-78.52,-8.11,-4134,451,-1044
2019-06-26 15:34:49.036877,163.82,-78.51,-8.13,-4129,459,-1063
2019-06-26 15:34:49.057864,163.67,-78.50,-8.15,-4128,465,-1067
2019-06-26 15:34:49.077869,163.57,-78.49,-8.18,-4129,455,-1060
2019-06-26 15:34:49.097873,163.41,-78.48,-8.21,-4132,460,-1063
2019-06-26 15:34:49.118878,163.29,-78.47,-8.23,-4132,462,-1069
2019-06-26 15:34:49.138882,163.13,-78.45,-8.25,-4117,458,-1063
2019-06-26 15:34:49.158887,163.01,-78.44,-8.27,-4146,456,-1072
2019-06-26 15:34:49.179891,162.88,-78.44,-8.30,-4133,461,-1067
2019-06-26 15:34:49.199896,162.74,-78.43,-8.32,-4125,465,-1060
2019-06-26 15:34:49.216902,162.58,-78.42,-8.34,-4125,462,-1042
2019-06-26 15:34:49.237905,162.46,-78.41,-8.36,-4129,467,-1046
2019-06-26 15:34:49.257909,162.30,-78.41,-8.38,-4128,479,-1043
2019-06-26 15:34:49.278916,162.16,-78.40,-8.40,-4135,481,-1054
2019-06-26 15:34:49.298941,162.05,-78.39,-8.42,-4143,480,-1070
2019-06-26 15:34:49.318923,161.88,-78.38,-8.44,-4136,490,-1065
2019-06-26 15:34:49.339928,161.75,-78.38,-8.46,-4128,476,-1058
2019-06-26 15:34:49.359932,161.60,-78.37,-8.48,-4135,483,-1060
2019-06-26 15:34:49.376936,161.46,-78.36,-8.50,-4139,477,-1065
2019-06-26 15:34:49.397941,161.35,-78.35,-8.52,-4132,480,-1085
2019-06-26 15:34:49.417964,161.22,-78.34,-8.54,-4131,481,-1069
2019-06-26 15:34:49.437968,161.07,-78.33,-8.56,-4132,481,-1065
2019-06-26 15:34:49.458973,160.94,-78.33,-8.58,-4137,479,-1053
2019-06-26 15:34:49.478977,160.80,-78.32,-8.60,-4136,484,-1046
2019-06-26 15:34:49.498982,160.66,-78.31,-8.61,-4138,488,-1061
2019-06-26 15:34:49.519987,160.51,-78.30,-8.63,-4135,492,-1073
2019-06-26 15:34:49.539991,160.43,-78.29,-8.65,-4130,496,-1073
2019-06-26 15:34:49.556995,160.26,-78.29,-8.66,-4134,490,-1081
2019-06-26 15:34:49.578000,160.15,-78.28,-8.68,-4137,492,-1072
2019-06-26 15:34:49.598004,160.01,-78.27,-8.70,-4138,485,-1068
2019-06-26 15:34:49.619009,159.90,-78.26,-8.72,-4138,486,-1075
2019-06-26 15:34:49.639003,159.79,-78.25,-8.74,-4141,493,-1081
2019-06-26 15:34:49.659018,159.67,-78.25,-8.75,-4131,493,-1077
2019-06-26 15:34:49.680022,159.51,-78.24,-8.76,-4140,488,-1075
2019-06-26 15:34:49.700011,159.39,-78.23,-8.78,-4128,507,-1069
2019-06-26 15:34:49.720013,159.28,-78.22,-8.80,-4108,491,-1063
2019-06-26 15:34:49.737019,159.12,-78.22,-8.81,-4140,484,-1079
2019-06-26 15:34:49.758022,159.03,-78.21,-8.83,-4136,493,-1075
2019-06-26 15:34:49.778027,158.89,-78.20,-8.85,-4132,505,-1092
2019-06-26 15:34:49.799032,158.78,-78.19,-8.86,-4142,513,-1086
2019-06-26 15:34:49.819036,158.64,-78.19,-8.87,-4128,506,-1076
2019-06-26 15:34:49.839041,158.50,-78.18,-8.88,-4139,496,-1082
2019-06-26 15:34:49.860046,158.42,-78.18,-8.90,-4142,502,-1086
2019-06-26 15:34:49.880049,158.25,-78.18,-8.91,-4154,530,-1091
2019-06-26 15:34:49.897053,158.13,-78.17,-8.92,-4134,530,-1090
2019-06-26 15:34:49.918058,158.02,-78.16,-8.93,-4148,512,-1080
2019-06-26 15:34:49.938062,157.86,-78.16,-8.94,-4147,500,-1082
2019-06-26 15:34:49.959068,157.75,-78.15,-8.96,-4142,506,-1078
2019-06-26 15:34:49.979072,157.63,-78.15,-8.97,-4147,519,-1082
2019-06-26 15:34:49.999077,157.50,-78.15,-8.98,-4136,522,-1084
2019-06-26 15:34:50.019081,157.38,-78.14,-8.99,-4135,528,-1080
2019-06-26 15:34:50.040085,157.27,-78.13,-9.00,-4144,516,-1084
2019-06-26 15:34:50.060090,157.16,-78.13,-9.01,-4146,508,-1081
2019-06-26 15:34:50.077095,157.02,-78.12,-9.03,-4151,499,-1091
2019-06-26 15:34:50.098099,156.91,-78.11,-9.04,-4148,503,-1080
2019-06-26 15:34:50.118103,156.77,-78.11,-9.05,-4148,512,-1083
2019-06-26 15:34:50.138108,156.66,-78.10,-9.06,-4145,508,-1095
2019-06-26 15:34:50.159131,156.55,-78.09,-9.06,-4151,513,-1103
2019-06-26 15:34:50.179135,156.47,-78.08,-9.07,-4139,517,-1104
2019-06-26 15:34:50.200140,156.41,-78.06,-9.08,-4153,542,-1091
2019-06-26 15:34:50.220144,156.36,-78.05,-9.09,-4155,527,-1100
2019-06-26 15:34:50.240149,156.33,-78.02,-9.11,-4145,489,-1110
2019-06-26 15:34:50.258153,156.30,-77.99,-9.12,-4132,521,-1103
2019-06-26 15:34:50.278140,156.28,-77.95,-9.13,-4137,515,-1116
2019-06-26 15:34:50.299145,156.25,-77.93,-9.13,-4161,560,-1083
2019-06-26 15:34:50.319148,156.00,-78.01,-9.12,-4120,642,-1054
2019-06-26 15:34:50.339152,155.87,-78.08,-9.14,-4270,494,-1090
2019-06-26 15:34:50.359157,155.91,-78.05,-9.19,-4184,388,-1097
2019-06-26 15:34:50.380163,155.97,-78.00,-9.19,-4164,457,-1096
2019-06-26 15:34:50.400166,156.00,-77.95,-9.20,-4168,512,-1083
2019-06-26 15:34:50.417171,156.06,-77.90,-9.22,-4155,501,-1105
2019-06-26 15:34:50.438175,156.06,-77.85,-9.23,-4143,536,-1102
2019-06-26 15:34:50.458179,156.06,-77.80,-9.25,-4137,510,-1094
2019-06-26 15:34:50.478184,156.11,-77.74,-9.26,-4144,519,-1105
2019-06-26 15:34:50.499190,156.14,-77.67,-9.27,-4137,520,-1117
2019-06-26 15:34:50.519193,156.19,-77.61,-9.28,-4136,523,-1123
2019-06-26 15:34:50.540198,156.18,-77.55,-9.29,-4163,548,-1115
2019-06-26 15:34:50.560203,156.23,-77.50,-9.30,-4157,593,-1115
2019-06-26 15:34:50.580207,155.20,-77.88,-9.17,-4364,797,-961
2019-06-26 15:34:50.598211,154.92,-78.05,-9.23,-4157,545,-1279
2019-06-26 15:34:50.618216,155.13,-77.99,-9.27,-4179,377,-1153
2019-06-26 15:34:50.638220,155.19,-77.93,-9.28,-4150,463,-1136
2019-06-26 15:34:50.659225,155.20,-77.88,-9.29,-4142,494,-1127
2019-06-26 15:34:50.679229,155.18,-77.83,-9.30,-4135,514,-1127
2019-06-26 15:34:50.699234,155.16,-77.80,-9.30,-4139,535,-1118
2019-06-26 15:34:50.720239,155.16,-77.76,-9.32,-4143,533,-1124
2019-06-26 15:34:50.740244,155.11,-77.73,-9.33,-4139,529,-1123
2019-06-26 15:34:50.757249,155.07,-77.70,-9.33,-4127,544,-1124
2019-06-26 15:34:50.778252,154.64,-77.83,-9.28,-4349,724,-1105
2019-06-26 15:34:50.798257,154.62,-77.86,-9.33,-4245,469,-1187
2019-06-26 15:34:50.818261,154.74,-77.79,-9.37,-4193,464,-1145
2019-06-26 15:34:50.839277,154.72,-77.75,-9.36,-4174,536,-1105
2019-06-26 15:34:50.859280,154.79,-77.70,-9.38,-4151,511,-1110
2019-06-26 15:34:50.880286,154.82,-77.66,-9.39,-4136,529,-1108
2019-06-26 15:34:50.900290,154.80,-77.63,-9.39,-4140,542,-1120
2019-06-26 15:34:50.920295,154.81,-77.59,-9.40,-4140,541,-1121
2019-06-26 15:34:50.937299,154.79,-77.56,-9.41,-4124,542,-1137
2019-06-26 15:34:50.958303,154.76,-77.55,-9.41,-4129,540,-1146
2019-06-26 15:34:50.978307,154.72,-77.53,-9.42,-4123,533,-1142
2019-06-26 15:34:50.998315,154.62,-77.52,-9.43,-4129,539,-1152
2019-06-26 15:34:51.019317,154.57,-77.51,-9.44,-4130,538,-1155
2019-06-26 15:34:51.039321,154.44,-77.51,-9.44,-4133,535,-1148
2019-06-26 15:34:51.060326,154.37,-77.50,-9.45,-4132,535,-1158
2019-06-26 15:34:51.080330,154.35,-77.49,-9.45,-4142,539,-1162
2019-06-26 15:34:51.100338,154.25,-77.48,-9.46,-4135,544,-1139
2019-06-26 15:34:51.117342,154.20,-77.46,-9.46,-4136,540,-1136
2019-06-26 15:34:51.138342,154.13,-77.45,-9.47,-4122,541,-1142
2019-06-26 15:34:51.158348,154.11,-77.44,-9.48,-4126,531,-1146
2019-06-26 15:34:51.179353,154.04,-77.42,-9.48,-4129,534,-1165
2019-06-26 15:34:51.199357,154.02,-77.40,-9.49,-4130,538,-1147
2019-06-26 15:34:51.220362,153.95,-77.38,-9.49,-4129,538,-1152
2019-06-26 15:34:51.240367,153.94,-77.36,-9.50,-4118,539,-1142
2019-06-26 15:34:51.260371,153.90,-77.34,-9.51,-4121,541,-1146
2019-06-26 15:34:51.277374,153.85,-77.32,-9.51,-4123,546,-1150
2019-06-26 15:34:51.297380,153.81,-77.30,-9.51,-4127,548,-1166
2019-06-26 15:34:51.318383,153.79,-77.27,-9.52,-4118,540,-1175
2019-06-26 15:34:51.338388,153.80,-77.25,-9.53,-4119,538,-1159
2019-06-26 15:34:51.359394,153.76,-77.22,-9.53,-4123,541,-1149
2019-06-26 15:34:51.379397,153.74,-77.22,-9.52,-4122,586,-1160
2019-06-26 15:34:51.399402,153.76,-77.21,-9.53,-4126,508,-1158
2019-06-26 15:34:51.420407,153.78,-77.18,-9.54,-4109,518,-1186
2019-06-26 15:34:51.440411,153.71,-77.16,-9.55,-4105,530,-1179
2019-06-26 15:34:51.457415,153.66,-77.15,-9.54,-4148,591,-1151
2019-06-26 15:34:51.478423,153.65,-77.13,-9.58,-4103,516,-1174
2019-06-26 15:34:51.498425,153.58,-77.12,-9.58,-4115,538,-1165
2019-06-26 15:34:51.519430,153.53,-77.12,-9.57,-4116,549,-1181
2019-06-26 15:34:51.539432,153.46,-77.12,-9.58,-4119,555,-1189
2019-06-26 15:34:51.559437,153.35,-77.11,-9.59,-4120,542,-1177
2019-06-26 15:34:51.579443,153.30,-77.11,-9.59,-4117,541,-1171
2019-06-26 15:34:51.600447,153.23,-77.10,-9.60,-4113,544,-1181
2019-06-26 15:34:51.620452,153.14,-77.10,-9.60,-4116,548,-1164
2019-06-26 15:34:51.637456,153.07,-77.10,-9.61,-4118,550,-1182
2019-06-26 15:34:51.658461,152.98,-77.09,-9.61,-4118,548,-1179
2019-06-26 15:34:51.678466,152.89,-77.09,-9.62,-4128,542,-1171
2019-06-26 15:34:51.699470,152.79,-77.10,-9.62,-4120,540,-1162
2019-06-26 15:34:51.719474,152.73,-77.09,-9.63,-4122,545,-1170
2019-06-26 15:34:51.739479,152.63,-77.09,-9.63,-4114,551,-1176
2019-06-26 15:34:51.760483,152.61,-77.09,-9.63,-4119,557,-1175
2019-06-26 15:34:51.780488,152.49,-77.09,-9.63,-4114,560,-1179
2019-06-26 15:34:51.797963,152.45,-77.10,-9.63,-4108,566,-1183
2019-06-26 15:34:51.817967,152.38,-77.09,-9.64,-4112,548,-1193
2019-06-26 15:34:51.838971,152.31,-77.09,-9.64,-4117,540,-1184
2019-06-26 15:34:51.858976,152.24,-77.08,-9.65,-4118,540,-1191
2019-06-26 15:34:51.878980,152.15,-77.09,-9.65,-4116,548,-1157
2019-06-26 15:34:51.899985,152.08,-77.09,-9.65,-4120,556,-1174
2019-06-26 15:34:51.919989,152.01,-77.09,-9.65,-4126,555,-1178
2019-06-26 15:34:51.940995,151.92,-77.09,-9.65,-4124,552,-1179
2019-06-26 15:34:51.961000,151.85,-77.08,-9.66,-4123,542,-1171
2019-06-26 15:34:51.978003,151.76,-77.08,-9.66,-4124,541,-1192
2019-06-26 15:34:51.998009,151.67,-77.08,-9.66,-4127,552,-1185
2019-06-26 15:34:52.019012,151.63,-77.08,-9.67,-4120,548,-1174
2019-06-26 15:34:52.039016,151.56,-77.08,-9.66,-4119,550,-1181
2019-06-26 15:34:52.060021,151.47,-77.08,-9.67,-4120,550,-1184
2019-06-26 15:34:52.080025,151.40,-77.08,-9.67,-4117,550,-1193
2019-06-26 15:34:52.100030,151.34,-77.07,-9.67,-4122,549,-1198
2019-06-26 15:34:52.121034,151.27,-77.07,-9.68,-4130,548,-1184
2019-06-26 15:34:52.141039,151.20,-77.07,-9.68,-4128,546,-1182
2019-06-26 15:34:52.158043,151.11,-77.07,-9.68,-4123,548,-1190
2019-06-26 15:34:52.178048,151.07,-77.07,-9.68,-4131,544,-1187
2019-06-26 15:34:52.199053,150.98,-77.07,-9.69,-4120,548,-1195
2019-06-26 15:34:52.219056,150.90,-77.06,-9.69,-4124,542,-1190
2019-06-26 15:34:52.239061,150.86,-77.05,-9.70,-4124,543,-1184
2019-06-26 15:34:52.260065,150.80,-77.04,-9.70,-4120,541,-1186
2019-06-26 15:34:52.280070,150.74,-77.04,-9.70,-4130,548,-1185
2019-06-26 15:34:52.301076,150.67,-77.03,-9.70,-4120,556,-1189
2019-06-26 15:34:52.318080,150.63,-77.02,-9.71,-4106,538,-1196
2019-06-26 15:34:52.338084,150.55,-77.02,-9.71,-4135,559,-1189
2019-06-26 15:34:52.359089,150.49,-77.01,-9.71,-4122,561,-1175
2019-06-26 15:34:52.380093,150.43,-77.00,-9.73,-4132,527,-1170
2019-06-26 15:34:52.400098,150.34,-77.01,-9.73,-4126,527,-1173
2019-06-26 15:34:52.420102,150.29,-77.01,-9.73,-4127,540,-1186
2019-06-26 15:34:52.440108,150.19,-77.00,-9.74,-4129,540,-1187
2019-06-26 15:34:52.460111,150.14,-77.00,-9.74,-4124,541,-1196
2019-06-26 15:34:52.481115,150.08,-77.00,-9.74,-4118,540,-1194
2019-06-26 15:34:52.498119,150.02,-76.99,-9.74,-4109,555,-1190
2019-06-26 15:34:52.518124,149.95,-77.00,-9.74,-4112,561,-1197
2019-06-26 15:34:52.539129,149.87,-77.03,-9.70,-4120,674,-1180
2019-06-26 15:34:52.559133,148.87,-77.37,-9.62,-4173,1000,-563
2019-06-26 15:34:52.579138,148.13,-77.62,-9.65,-4136,551,-1251
2019-06-26 15:34:52.600142,148.21,-77.59,-9.69,-4058,472,-1212
2019-06-26 15:34:52.620147,148.17,-77.57,-9.69,-4093,514,-1168
2019-06-26 15:34:52.641152,148.11,-77.57,-9.70,-4117,538,-1136
2019-06-26 15:34:52.661156,147.99,-77.57,-9.69,-4129,540,-1139
2019-06-26 15:34:52.678160,147.92,-77.57,-9.70,-4138,553,-1126
2019-06-26 15:34:52.699165,147.83,-77.57,-9.70,-4143,555,-1137
2019-06-26 15:34:52.719169,147.74,-77.57,-9.70,-4138,557,-1138
2019-06-26 15:34:52.739173,147.65,-77.57,-9.70,-4138,559,-1144
2019-06-26 15:34:52.760179,147.52,-77.59,-9.69,-4135,587,-1120
2019-06-26 15:34:52.780184,147.39,-77.60,-9.69,-4141,551,-1149
2019-06-26 15:34:52.800189,147.33,-77.60,-9.69,-4143,552,-1144
2019-06-26 15:34:52.821192,147.26,-77.59,-9.70,-4142,553,-1160
2019-06-26 15:34:52.838196,147.20,-77.59,-9.69,-4146,563,-1142
2019-06-26 15:34:52.858201,147.11,-77.59,-9.69,-4134,564,-1147
2019-06-26 15:34:52.879205,147.07,-77.59,-9.70,-4132,563,-1129
2019-06-26 15:34:52.899210,146.98,-77.59,-9.70,-4140,571,-1128
2019-06-26 15:34:52.919215,146.87,-77.59,-9.70,-4138,564,-1125
2019-06-26 15:34:52.940219,146.83,-77.59,-9.70,-4146,563,-1127
2019-06-26 15:34:52.960223,146.77,-77.59,-9.70,-4148,572,-1143
2019-06-26 15:34:52.981228,146.68,-77.59,-9.70,-4149,563,-1136
2019-06-26 15:34:53.001233,146.59,-77.59,-9.70,-4147,562,-1142
2019-06-26 15:34:53.018237,146.50,-77.59,-9.70,-4141,558,-1127
2019-06-26 15:34:53.039242,146.41,-77.59,-9.71,-4148,560,-1132
2019-06-26 15:34:53.059246,146.37,-77.59,-9.70,-4150,554,-1117
2019-06-26 15:34:53.079250,146.29,-77.59,-9.70,-4151,556,-1120
2019-06-26 15:34:53.099255,146.20,-77.59,-9.71,-4146,557,-1114
2019-06-26 15:34:53.120260,146.08,-77.60,-9.71,-4139,565,-1122
2019-06-26 15:34:53.140264,146.02,-77.59,-9.71,-4139,559,-1122
2019-06-26 15:34:53.161269,145.94,-77.59,-9.71,-4143,560,-1120
2019-06-26 15:34:53.181273,145.85,-77.59,-9.71,-4149,554,-1129
2019-06-26 15:34:53.198277,145.79,-77.59,-9.71,-4150,549,-1136
2019-06-26 15:34:53.218282,145.71,-77.59,-9.71,-4154,553,-1136
2019-06-26 15:34:53.239287,145.62,-77.59,-9.71,-4147,557,-1132
2019-06-26 15:34:53.259291,145.55,-77.59,-9.71,-4142,554,-1130
2019-06-26 15:34:53.280296,145.47,-77.59,-9.71,-4144,551,-1126
2019-06-26 15:34:53.300300,145.41,-77.58,-9.72,-4140,557,-1134
2019-06-26 15:34:53.320305,145.35,-77.58,-9.72,-4139,564,-1142
2019-06-26 15:34:53.341310,145.26,-77.58,-9.72,-4146,564,-1133
2019-06-26 15:34:53.358314,145.18,-77.59,-9.72,-4144,568,-1131
2019-06-26 15:34:53.378317,145.14,-77.59,-9.72,-4142,567,-1134
2019-06-26 15:34:53.399324,145.06,-77.58,-9.72,-4143,575,-1132
2019-06-26 15:34:53.419328,144.97,-77.59,-9.72,-4133,565,-1127
2019-06-26 15:34:53.439332,144.89,-77.59,-9.72,-4135,561,-1115
2019-06-26 15:34:53.460337,144.80,-77.59,-9.72,-4136,562,-1124
2019-06-26 15:34:53.480340,144.77,-77.59,-9.72,-4135,569,-1129
2019-06-26 15:34:53.500345,144.68,-77.59,-9.72,-4139,572,-1126
2019-06-26 15:34:53.521350,144.58,-77.59,-9.72,-4133,566,-1127
2019-06-26 15:34:53.538355,144.54,-77.59,-9.72,-4124,571,-1117
2019-06-26 15:34:53.558359,144.43,-77.59,-9.72,-4125,571,-1131
2019-06-26 15:34:53.579364,144.40,-77.59,-9.72,-4131,560,-1145
2019-06-26 15:34:53.599368,144.33,-77.59,-9.72,-4134,573,-1139
2019-06-26 15:34:53.620373,144.25,-77.59,-9.72,-4132,568,-1153
2019-06-26 15:34:53.640377,144.20,-77.58,-9.72,-4121,559,-1141
2019-06-26 15:34:53.660381,144.12,-77.58,-9.72,-4138,559,-1140
2019-06-26 15:34:53.681386,144.05,-77.59,-9.72,-4129,566,-1125
2019-06-26 15:34:53.701390,143.97,-77.59,-9.72,-4138,560,-1121
2019-06-26 15:34:53.718395,143.92,-77.58,-9.72,-4138,567,-1136
2019-06-26 15:34:53.738400,143.86,-77.59,-9.72,-4132,584,-1130
2019-06-26 15:34:53.759404,143.63,-77.63,-9.70,-4185,627,-1066
2019-06-26 15:34:53.779408,143.37,-77.69,-9.70,-4117,586,-1126
2019-06-26 15:34:53.800413,143.26,-77.70,-9.71,-4129,537,-1139
2019-06-26 15:34:53.820418,143.18,-77.70,-9.71,-4130,547,-1127
2019-06-26 15:34:53.840422,143.13,-77.69,-9.72,-4135,557,-1127
2019-06-26 15:34:53.861427,143.08,-77.69,-9.72,-4132,559,-1147
2019-06-26 15:34:53.878431,142.99,-77.69,-9.72,-4136,560,-1126
2019-06-26 15:34:53.898437,142.91,-77.69,-9.72,-4140,562,-1107
2019-06-26 15:34:53.919440,142.85,-77.69,-9.72,-4134,567,-1109
2019-06-26 15:34:53.939444,142.77,-77.69,-9.72,-4137,566,-1107
2019-06-26 15:34:53.960449,142.69,-77.69,-9.72,-4138,568,-1106
2019-06-26 15:34:53.980454,142.64,-77.69,-9.72,-4139,566,-1115
2019-06-26 15:34:54.000460,142.58,-77.69,-9.72,-4135,564,-1111
2019-06-26 15:34:54.020462,142.48,-77.69,-9.72,-4139,564,-1110
2019-06-26 15:34:54.041468,142.41,-77.69,-9.72,-4141,569,-1108
2019-06-26 15:34:54.058472,142.33,-77.69,-9.72,-4141,568,-1111
2019-06-26 15:34:54.078477,142.25,-77.69,-9.72,-4137,567,-1107
2019-06-26 15:34:54.099480,142.17,-77.70,-9.72,-4138,564,-1091
2019-06-26 15:34:54.119484,142.09,-77.70,-9.72,-4136,565,-1113
2019-06-26 15:34:54.140490,142.04,-77.69,-9.73,-4142,567,-1108
2019-06-26 15:34:54.160494,141.98,-77.70,-9.72,-4140,566,-1104
2019-06-26 15:34:54.180499,141.90,-77.70,-9.72,-4131,560,-1111
2019-06-26 15:34:54.201503,141.82,-77.70,-9.72,-4133,560,-1112
2019-06-26 15:34:54.221508,141.75,-77.70,-9.73,-4141,570,-1115
2019-06-26 15:34:54.238512,141.70,-77.69,-9.73,-4137,565,-1132
2019-06-26 15:34:54.259517,141.62,-77.69,-9.73,-4137,565,-1134
2019-06-26 15:34:54.279521,141.57,-77.69,-9.73,-4133,569,-1129
2019-06-26 15:34:54.300526,141.49,-77.69,-9.73,-4136,563,-1132
2019-06-26 15:34:54.320530,141.43,-77.69,-9.73,-4134,570,-1128
2019-06-26 15:34:54.340534,141.39,-77.69,-9.73,-4131,562,-1125
2019-06-26 15:34:54.360539,141.31,-77.69,-9.73,-4140,557,-1132
2019-06-26 15:34:54.381544,141.23,-77.69,-9.73,-4142,558,-1121
2019-06-26 15:34:54.398548,141.15,-77.70,-9.72,-4136,567,-1105
2019-06-26 15:34:54.418552,141.11,-77.69,-9.73,-4144,561,-1119
2019-06-26 15:34:54.439558,141.03,-77.69,-9.73,-4134,560,-1109
2019-06-26 15:34:54.459562,140.95,-77.69,-9.73,-4135,565,-1115
2019-06-26 15:34:54.479566,140.91,-77.69,-9.73,-4145,567,-1119
2019-06-26 15:34:54.500572,140.83,-77.69,-9.73,-4130,571,-1119
2019-06-26 15:34:54.520575,140.75,-77.69,-9.73,-4136,570,-1111
2019-06-26 15:34:54.540580,140.66,-77.70,-9.73,-4135,560,-1117
2019-06-26 15:34:54.561584,140.61,-77.70,-9.73,-4140,558,-1103
2019-06-26 15:34:54.578588,140.53,-77.70,-9.73,-4135,565,-1115
2019-06-26 15:34:54.599593,140.45,-77.70,-9.74,-4133,570,-1117
2019-06-26 15:34:54.619598,140.40,-77.70,-9.73,-4136,569,-1118
2019-06-26 15:34:54.639602,140.35,-77.70,-9.73,-4136,562,-1125
2019-06-26 15:34:54.659606,140.28,-77.70,-9.73,-4142,559,-1121
2019-06-26 15:34:54.680611,140.20,-77.70,-9.74,-4145,559,-1107
2019-06-26 15:34:54.700615,140.16,-77.70,-9.74,-4141,565,-1112
2019-06-26 15:34:54.721620,140.08,-77.70,-9.74,-4145,568,-1126
2019-06-26 15:34:54.738625,139.99,-77.70,-9.74,-4144,568,-1132
2019-06-26 15:34:54.758629,139.96,-77.70,-9.73,-4147,568,-1130
2019-06-26 15:34:54.779634,139.89,-77.70,-9.73,-4142,579,-1119
2019-06-26 15:34:54.799640,139.78,-77.70,-9.73,-4147,571,-1105
2019-06-26 15:34:54.819653,139.74,-77.70,-9.74,-4143,571,-1110
2019-06-26 15:34:54.840658,139.66,-77.70,-9.74,-4143,569,-1122
2019-06-26 15:34:54.860663,139.64,-77.70,-9.73,-4150,568,-1116
2019-06-26 15:34:54.880667,139.55,-77.70,-9.73,-4149,572,-1109
2019-06-26 15:34:54.901672,139.47,-77.70,-9.73,-4150,566,-1119
2019-06-26 15:34:54.918676,139.42,-77.71,-9.73,-4147,573,-1116
2019-06-26 15:34:54.939681,139.37,-77.70,-9.73,-4135,567,-1135
2019-06-26 15:34:54.959685,139.30,-77.70,-9.73,-4143,565,-1124
2019-06-26 15:34:54.979689,139.28,-77.70,-9.74,-4147,556,-1132
2019-06-26 15:34:54.999694,139.19,-77.70,-9.73,-4145,565,-1127
2019-06-26 15:34:55.020699,139.11,-77.70,-9.74,-4143,567,-1115
2019-06-26 15:34:55.040703,139.06,-77.70,-9.73,-4148,573,-1109
2019-06-26 15:34:55.061708,138.99,-77.71,-9.73,-4143,569,-1113
2019-06-26 15:34:55.081712,138.96,-77.71,-9.73,-4142,580,-1113
2019-06-26 15:34:55.099718,138.89,-77.71,-9.73,-4148,571,-1113
2019-06-26 15:34:55.119722,138.80,-77.71,-9.73,-4137,566,-1101
2019-06-26 15:34:55.139736,138.73,-77.71,-9.73,-4140,570,-1108
2019-06-26 15:34:55.159740,138.65,-77.71,-9.73,-4141,569,-1110
2019-06-26 15:34:55.179745,138.61,-77.71,-9.73,-4142,567,-1118
2019-06-26 15:34:55.200750,138.56,-77.71,-9.73,-4138,566,-1122
2019-06-26 15:34:55.220754,138.49,-77.71,-9.73,-4139,574,-1113
2019-06-26 15:34:55.241759,138.43,-77.71,-9.72,-4136,565,-1105
2019-06-26 15:34:55.258763,138.39,-77.71,-9.73,-4129,575,-1110
2019-06-26 15:34:55.278768,138.30,-77.72,-9.72,-4136,573,-1109
2019-06-26 15:34:55.298771,138.23,-77.72,-9.72,-4131,577,-1113
2019-06-26 15:34:55.319786,138.16,-77.72,-9.73,-4133,570,-1113
2019-06-26 15:34:55.339791,138.09,-77.72,-9.73,-4125,560,-1119
2019-06-26 15:34:55.360796,138.05,-77.71,-9.73,-4129,551,-1125
2019-06-26 15:34:55.380800,137.98,-77.71,-9.73,-4147,555,-1129
2019-06-26 15:34:55.401806,137.95,-77.71,-9.73,-4146,560,-1126
2019-06-26 15:34:55.421809,137.89,-77.71,-9.73,-4147,562,-1105
2019-06-26 15:34:55.438813,137.82,-77.71,-9.73,-4154,570,-1116
2019-06-26 15:34:55.458818,137.73,-77.72,-9.73,-4145,574,-1125
2019-06-26 15:34:55.479823,137.70,-77.71,-9.73,-4139,566,-1118
2019-06-26 15:34:55.499827,137.65,-77.71,-9.73,-4143,563,-1133
2019-06-26 15:34:55.519833,137.58,-77.71,-9.73,-4137,562,-1125
2019-06-26 15:34:55.540837,137.54,-77.71,-9.74,-4136,558,-1119
2019-06-26 15:34:55.560841,137.49,-77.71,-9.73,-4136,564,-1115
2019-06-26 15:34:55.581845,137.42,-77.71,-9.73,-4144,566,-1116
2019-06-26 15:34:55.601882,137.35,-77.71,-9.73,-4153,563,-1108
2019-06-26 15:34:55.618867,137.29,-77.71,-9.73,-4143,576,-1138
2019-06-26 15:34:55.638861,137.24,-77.71,-9.73,-4137,567,-1136
2019-06-26 15:34:55.659862,137.20,-77.71,-9.73,-4137,566,-1139
2019-06-26 15:34:55.679867,137.14,-77.71,-9.73,-4148,563,-1127
2019-06-26 15:34:55.700873,137.07,-77.71,-9.73,-4150,570,-1114
2019-06-26 15:34:55.720878,137.00,-77.71,-9.73,-4147,566,-1121
2019-06-26 15:34:55.740882,136.98,-77.71,-9.73,-4146,566,-1122
2019-06-26 15:34:55.761887,136.89,-77.71,-9.73,-4143,566,-1127
2019-06-26 15:34:55.778890,136.86,-77.71,-9.73,-4145,566,-1114
2019-06-26 15:34:55.795174,136.81,-77.72,-9.72,-4144,571,-1103
2019-06-26 15:34:55.810799,136.74,-77.72,-9.73,-4147,561,-1109
2019-06-26 15:34:55.826425,136.67,-77.72,-9.73,-4149,560,-1125
2019-06-26 15:34:55.860642,136.64,-77.71,-9.73,-4138,563,-1145
2019-06-26 15:34:55.880646,136.57,-77.71,-9.73,-4139,567,-1134
2019-06-26 15:34:55.898334,136.50,-77.71,-9.73,-4134,567,-1118
2019-06-26 15:34:55.913959,136.47,-77.71,-9.73,-4138,561,-1115
2019-06-26 15:34:55.929585,136.42,-77.71,-9.73,-4131,563,-1121
2019-06-26 15:34:55.945211,136.35,-77.71,-9.73,-4138,568,-1120
2019-06-26 15:34:55.976464,136.32,-77.71,-9.73,-4143,571,-1121
2019-06-26 15:34:55.992089,136.25,-77.71,-9.73,-4140,575,-1123
2019-06-26 15:34:56.007716,136.23,-77.71,-9.73,-4135,571,-1135
2019-06-26 15:34:56.038968,136.17,-77.71,-9.73,-4140,567,-1131
2019-06-26 15:34:56.054594,136.13,-77.70,-9.73,-4133,564,-1112
2019-06-26 15:34:56.070238,136.07,-77.70,-9.73,-4131,569,-1114
2019-06-26 15:34:56.101490,136.00,-77.71,-9.73,-4133,567,-1121
2019-06-26 15:34:56.117116,135.93,-77.71,-9.73,-4134,561,-1117
2019-06-26 15:34:56.132742,135.90,-77.71,-9.73,-4137,579,-1126
2019-06-26 15:34:56.148350,135.84,-77.71,-9.73,-4139,565,-1119
2019-06-26 15:34:56.179602,135.77,-77.71,-9.73,-4136,552,-1115
2019-06-26 15:34:56.195228,135.74,-77.70,-9.73,-4135,555,-1120
2019-06-26 15:34:56.210855,135.67,-77.70,-9.73,-4130,557,-1117
2019-06-26 15:34:56.226480,135.64,-77.70,-9.74,-4132,563,-1129
2019-06-26 15:34:56.257734,135.59,-77.70,-9.73,-4127,574,-1121
2019-06-26 15:34:56.273359,135.54,-77.71,-9.73,-4135,575,-1131
2019-06-26 15:34:56.289002,135.49,-77.71,-9.73,-4146,571,-1126
2019-06-26 15:34:56.304628,135.43,-77.71,-9.73,-4147,569,-1127
2019-06-26 15:34:56.335863,135.36,-77.71,-9.73,-4138,570,-1112
2019-06-26 15:34:56.351506,135.30,-77.71,-9.73,-4142,565,-1105
2019-06-26 15:34:56.367276,135.25,-77.71,-9.72,-4147,560,-1112
2019-06-26 15:34:56.398385,135.22,-77.71,-9.73,-4146,564,-1120
2019-06-26 15:34:56.414160,135.16,-77.71,-9.73,-4145,562,-1121
2019-06-26 15:34:56.429789,135.12,-77.71,-9.73,-4143,565,-1122
2019-06-26 15:34:56.460889,135.06,-77.71,-9.73,-4135,562,-1108
2019-06-26 15:34:56.476666,135.01,-77.71,-9.73,-4135,565,-1094
2019-06-26 15:34:56.492293,134.95,-77.71,-9.73,-4136,564,-1100
2019-06-26 15:34:56.507911,134.89,-77.71,-9.73,-4135,552,-1114
2019-06-26 15:34:56.539019,134.82,-77.71,-9.73,-4138,552,-1111
2019-06-26 15:34:56.560933,134.79,-77.71,-9.73,-4131,552,-1116
2019-06-26 15:34:56.580937,134.73,-77.71,-9.73,-4137,564,-1124
2019-06-26 15:34:56.598600,134.70,-77.71,-9.74,-4133,568,-1124
2019-06-26 15:34:56.614227,134.64,-77.71,-9.74,-4139,566,-1126
2019-06-26 15:34:56.629871,134.61,-77.70,-9.74,-4135,557,-1118
2019-06-26 15:34:56.645497,134.54,-77.70,-9.74,-4137,558,-1145
2019-06-26 15:34:56.676749,134.48,-77.70,-9.74,-4140,566,-1114
2019-06-26 15:34:56.692375,134.47,-77.70,-9.74,-4135,564,-1126
2019-06-26 15:34:56.708001,134.40,-77.70,-9.74,-4144,570,-1117
2019-06-26 15:34:56.739253,134.34,-77.70,-9.74,-4151,573,-1109
2019-06-26 15:34:56.754884,134.28,-77.70,-9.74,-4153,571,-1119
2019-06-26 15:34:56.770505,134.23,-77.71,-9.74,-4148,565,-1122
2019-06-26 15:34:56.802477,134.19,-77.71,-9.73,-4145,574,-1117
2019-06-26 15:34:56.819478,134.14,-77.70,-9.74,-4144,568,-1112
2019-06-26 15:34:56.839481,134.08,-77.70,-9.74,-4136,564,-1106
2019-06-26 15:34:56.860486,134.04,-77.71,-9.74,-4139,562,-1114
2019-06-26 15:34:56.880490,133.99,-77.71,-9.73,-4142,557,-1118
2019-06-26 15:34:56.901495,133.95,-77.70,-9.74,-4141,554,-1133
2019-06-26 15:34:56.920500,133.89,-77.70,-9.74,-4145,561,-1109
2019-06-26 15:34:56.941505,133.81,-77.71,-9.74,-4147,564,-1101
2019-06-26 15:34:56.961510,133.79,-77.71,-9.74,-4144,562,-1105
2019-06-26 15:34:56.981513,133.73,-77.71,-9.74,-4141,561,-1116
2019-06-26 15:34:56.999518,133.70,-77.70,-9.74,-4137,569,-1131
2019-06-26 15:34:57.019522,133.64,-77.71,-9.74,-4131,568,-1114
2019-06-26 15:34:57.040527,133.60,-77.71,-9.74,-4139,571,-1118
2019-06-26 15:34:57.060532,133.55,-77.71,-9.73,-4145,574,-1113
2019-06-26 15:34:57.080536,133.49,-77.71,-9.73,-4143,571,-1107
2019-06-26 15:34:57.100540,133.45,-77.71,-9.73,-4142,574,-1101
2019-06-26 15:34:57.121545,133.39,-77.72,-9.73,-4144,562,-1102
2019-06-26 15:34:57.141550,133.34,-77.72,-9.73,-4143,566,-1121
2019-06-26 15:34:57.162555,133.30,-77.71,-9.73,-4146,562,-1117
2019-06-26 15:34:57.179560,133.27,-77.72,-9.73,-4136,569,-1123
2019-06-26 15:34:57.199563,133.21,-77.72,-9.73,-4135,566,-1126
2019-06-26 15:34:57.220568,133.15,-77.72,-9.73,-4147,567,-1120
2019-06-26 15:34:57.240572,133.10,-77.72,-9.73,-4139,564,-1109
2019-06-26 15:34:57.261577,133.08,-77.72,-9.73,-4140,565,-1110
2019-06-26 15:34:57.281581,133.02,-77.72,-9.73,-4144,560,-1117
2019-06-26 15:34:57.301587,132.96,-77.72,-9.73,-4140,568,-1121
2019-06-26 15:34:57.321590,132.94,-77.71,-9.73,-4144,569,-1105
2019-06-26 15:34:57.339595,132.89,-77.72,-9.73,-4144,562,-1107
2019-06-26 15:34:57.360600,132.83,-77.72,-9.73,-4137,559,-1122
2019-06-26 15:34:57.380603,132.81,-77.71,-9.73,-4138,563,-1118
2019-06-26 15:34:57.400608,132.73,-77.72,-9.73,-4137,569,-1134
2019-06-26 15:34:57.420613,132.72,-77.72,-9.72,-4139,577,-1121
2019-06-26 15:34:57.440617,132.66,-77.72,-9.72,-4137,574,-1114
2019-06-26 15:34:57.461622,132.60,-77.72,-9.73,-4139,576,-1120
2019-06-26 15:34:57.481627,132.58,-77.71,-9.73,-4138,568,-1129
2019-06-26 15:34:57.502631,132.56,-77.71,-9.72,-4137,564,-1131
2019-06-26 15:34:57.519635,132.49,-77.71,-9.73,-4141,556,-1132
2019-06-26 15:34:57.539640,132.45,-77.71,-9.73,-4142,567,-1122
2019-06-26 15:34:57.560644,132.38,-77.71,-9.73,-4144,562,-1111
2019-06-26 15:34:57.580649,132.32,-77.71,-9.73,-4146,557,-1108
2019-06-26 15:34:57.600653,132.30,-77.71,-9.74,-4144,561,-1102
2019-06-26 15:34:57.620657,132.24,-77.71,-9.73,-4139,566,-1092
2019-06-26 15:34:57.641663,132.18,-77.71,-9.73,-4136,559,-1110
2019-06-26 15:34:57.661667,132.16,-77.71,-9.73,-4139,564,-1140
2019-06-26 15:34:57.682672,132.14,-77.71,-9.73,-4141,562,-1132
2019-06-26 15:34:57.699676,132.09,-77.71,-9.73,-4135,560,-1129
2019-06-26 15:34:57.719680,132.05,-77.71,-9.73,-4129,557,-1127
2019-06-26 15:34:57.739684,132.01,-77.70,-9.73,-4130,556,-1129
2019-06-26 15:34:57.760689,131.98,-77.70,-9.73,-4136,556,-1135
2019-06-26 15:34:57.780694,131.94,-77.70,-9.73,-4137,568,-1128
2019-06-26 15:34:57.801698,131.88,-77.70,-9.73,-4137,570,-1132
2019-06-26 15:34:57.821703,131.86,-77.70,-9.73,-4135,565,-1129
2019-06-26 15:34:57.842708,131.80,-77.71,-9.72,-4138,563,-1123
2019-06-26 15:34:57.859712,131.77,-77.70,-9.73,-4149,566,-1126
2019-06-26 15:34:57.879716,131.72,-77.70,-9.73,-4145,567,-1118
2019-06-26 15:34:57.900721,131.66,-77.70,-9.73,-4136,554,-1130
2019-06-26 15:34:57.920725,131.64,-77.70,-9.73,-4131,551,-1126
2019-06-26 15:34:57.940729,131.58,-77.70,-9.73,-4133,557,-1132
2019-06-26 15:34:57.960734,131.54,-77.71,-9.73,-4141,558,-1130
2019-06-26 15:34:57.981741,131.52,-77.70,-9.73,-4142,563,-1123
2019-06-26 15:34:58.001743,131.47,-77.71,-9.73,-4133,568,-1129
2019-06-26 15:34:58.022748,131.45,-77.70,-9.73,-4136,563,-1125
2019-06-26 15:34:58.039752,131.39,-77.70,-9.73,-4144,566,-1127
2019-06-26 15:34:58.059756,131.34,-77.70,-9.73,-4138,566,-1120
2019-06-26 15:34:58.079761,131.28,-77.71,-9.72,-4143,575,-1107
2019-06-26 15:34:58.100764,131.23,-77.71,-9.72,-4146,566,-1107
2019-06-26 15:34:58.120771,131.20,-77.71,-9.72,-4145,577,-1107
2019-06-26 15:34:58.141776,131.16,-77.71,-9.72,-4139,578,-1121
2019-06-26 15:34:58.161781,131.14,-77.71,-9.72,-4130,576,-1129
2019-06-26 15:34:58.181784,131.08,-77.71,-9.72,-4133,569,-1130
2019-06-26 15:34:58.199789,131.04,-77.71,-9.72,-4130,569,-1108
2019-06-26 15:34:58.219793,131.02,-77.71,-9.72,-4124,553,-1116
2019-06-26 15:34:58.240797,130.97,-77.71,-9.72,-4128,558,-1112
2019-06-26 15:34:58.260802,130.90,-77.71,-9.72,-4140,567,-1126
2019-06-26 15:34:58.280807,130.87,-77.71,-9.72,-4136,571,-1128
2019-06-26 15:34:58.300811,130.82,-77.71,-9.72,-4130,573,-1127
2019-06-26 15:34:58.321816,130.80,-77.71,-9.71,-4127,566,-1118
2019-06-26 15:34:58.341820,130.74,-77.71,-9.72,-4137,560,-1124
2019-06-26 15:34:58.362826,130.72,-77.71,-9.72,-4134,556,-1134
2019-06-26 15:34:58.378828,130.68,-77.70,-9.72,-4131,558,-1136
2019-06-26 15:34:58.399833,130.64,-77.70,-9.72,-4131,562,-1131
2019-06-26 15:34:58.419838,130.59,-77.70,-9.72,-4128,568,-1134
2019-06-26 15:34:58.440843,130.58,-77.70,-9.72,-4138,575,-1139
2019-06-26 15:34:58.460847,130.52,-77.71,-9.71,-4124,582,-1120
2019-06-26 15:34:58.481852,130.47,-77.71,-9.71,-4134,576,-1118
2019-06-26 15:34:58.501856,130.45,-77.71,-9.71,-4141,562,-1123
2019-06-26 15:34:58.521860,130.40,-77.71,-9.71,-4141,560,-1115
2019-06-26 15:34:58.541865,130.34,-77.71,-9.72,-4126,560,-1121
2019-06-26 15:34:58.559869,130.33,-77.71,-9.71,-4125,558,-1111
2019-06-26 15:34:58.579873,130.28,-77.71,-9.71,-4128,567,-1100
2019-06-26 15:34:58.599878,130.23,-77.71,-9.71,-4126,563,-1103
2019-06-26 15:34:58.620883,130.18,-77.72,-9.71,-4133,566,-1121
2019-06-26 15:34:58.640888,130.15,-77.71,-9.71,-4133,563,-1134
2019-06-26 15:34:58.661892,130.10,-77.71,-9.71,-4126,565,-1125
2019-06-26 15:34:58.681897,130.05,-77.71,-9.71,-4130,562,-1109
2019-06-26 15:34:58.701901,130.00,-77.72,-9.71,-4127,565,-1096
2019-06-26 15:34:58.718905,129.95,-77.72,-9.71,-4126,566,-1109
2019-06-26 15:34:58.739910,129.93,-77.71,-9.71,-4129,566,-1114
2019-06-26 15:34:58.759914,129.89,-77.72,-9.71,-4129,565,-1125
2019-06-26 15:34:58.780918,129.85,-77.72,-9.71,-4128,572,-1121
2019-06-26 15:34:58.800923,129.80,-77.72,-9.71,-4129,567,-1111
2019-06-26 15:34:58.820928,129.79,-77.72,-9.71,-4130,572,-1115
2019-06-26 15:34:58.841933,129.74,-77.72,-9.71,-4133,566,-1118
2019-06-26 15:34:58.861938,129.69,-77.72,-9.71,-4130,560,-1118
2019-06-26 15:34:58.881942,129.66,-77.71,-9.72,-4126,557,-1116
2019-06-26 15:34:58.899946,129.60,-77.71,-9.72,-4136,554,-1136
2019-06-26 15:34:58.919951,129.59,-77.71,-9.71,-4138,554,-1124
2019-06-26 15:34:58.939955,129.54,-77.71,-9.71,-4135,554,-1116
2019-06-26 15:34:58.960960,129.49,-77.71,-9.72,-4132,561,-1114
2019-06-26 15:34:58.980964,129.47,-77.71,-9.72,-4134,555,-1120
2019-06-26 15:34:59.001970,129.43,-77.71,-9.71,-4131,561,-1123
2019-06-26 15:34:59.021973,129.41,-77.71,-9.72,-4134,567,-1130
2019-06-26 15:34:59.041978,129.36,-77.71,-9.72,-4130,566,-1121
2019-06-26 15:34:59.062982,129.34,-77.70,-9.72,-4132,557,-1122
2019-06-26 15:34:59.079986,129.29,-77.71,-9.72,-4136,564,-1119
2019-06-26 15:34:59.099991,129.25,-77.71,-9.72,-4135,557,-1117
2019-06-26 15:34:59.120995,129.23,-77.71,-9.72,-4136,558,-1118
2019-06-26 15:34:59.141000,129.18,-77.71,-9.72,-4142,563,-1121
2019-06-26 15:34:59.161005,129.16,-77.70,-9.72,-4135,569,-1120
2019-06-26 15:34:59.182009,129.11,-77.71,-9.71,-4144,567,-1113
2019-06-26 15:34:59.202014,129.06,-77.71,-9.71,-4150,572,-1120
2019-06-26 15:34:59.222018,129.04,-77.71,-9.72,-4145,573,-1119
2019-06-26 15:34:59.239022,128.99,-77.71,-9.72,-4145,565,-1111
2019-06-26 15:34:59.260027,128.94,-77.71,-9.72,-4135,562,-1116
2019-06-26 15:34:59.280032,128.94,-77.71,-9.71,-4131,564,-1130
2019-06-26 15:34:59.301036,128.89,-77.71,-9.72,-4129,567,-1121
2019-06-26 15:34:59.321040,128.87,-77.70,-9.72,-4134,566,-1130
2019-06-26 15:34:59.342045,128.82,-77.71,-9.72,-4139,566,-1114
2019-06-26 15:34:59.362050,128.78,-77.71,-9.71,-4135,561,-1113
2019-06-26 15:34:59.382054,128.73,-77.71,-9.72,-4138,564,-1124
2019-06-26 15:34:59.403059,128.68,-77.71,-9.72,-4139,558,-1119
2019-06-26 15:34:59.420064,128.66,-77.71,-9.72,-4140,561,-1123
2019-06-26 15:34:59.440067,128.61,-77.71,-9.72,-4144,560,-1140
2019-06-26 15:34:59.460072,128.58,-77.71,-9.72,-4140,564,-1137
2019-06-26 15:34:59.481077,128.56,-77.70,-9.72,-4144,564,-1128
2019-06-26 15:34:59.501082,128.52,-77.71,-9.72,-4145,575,-1127
2019-06-26 15:34:59.521085,128.48,-77.71,-9.72,-4134,569,-1128
2019-06-26 15:34:59.542090,128.46,-77.70,-9.72,-4135,561,-1105
2019-06-26 15:34:59.562095,128.41,-77.70,-9.72,-4145,564,-1111
2019-06-26 15:34:59.583100,128.36,-77.71,-9.71,-4144,564,-1124
2019-06-26 15:34:59.600104,128.35,-77.70,-9.72,-4152,564,-1119
2019-06-26 15:34:59.620108,128.31,-77.71,-9.72,-4150,567,-1115
2019-06-26 15:34:59.641114,128.25,-77.71,-9.72,-4146,577,-1117
2019-06-26 15:34:59.661117,128.20,-77.71,-9.72,-4146,574,-1119
2019-06-26 15:34:59.681122,128.15,-77.71,-9.72,-4142,573,-1109
2019-06-26 15:34:59.702126,128.14,-77.71,-9.71,-4141,572,-1125
2019-06-26 15:34:59.722131,128.09,-77.71,-9.72,-4132,571,-1108
2019-06-26 15:34:59.742135,128.05,-77.71,-9.72,-4136,570,-1110
2019-06-26 15:34:59.759139,128.03,-77.71,-9.72,-4133,568,-1122
2019-06-26 15:34:59.780144,127.99,-77.71,-9.71,-4131,570,-1136
2019-06-26 15:34:59.800148,127.97,-77.71,-9.72,-4139,553,-1138
2019-06-26 15:34:59.821153,127.93,-77.71,-9.72,-4145,571,-1139
2019-06-26 15:34:59.841158,127.91,-77.71,-9.72,-4143,563,-1122
2019-06-26 15:34:59.861162,127.86,-77.71,-9.71,-4142,569,-1115
2019-06-26 15:34:59.882167,127.81,-77.71,-9.71,-4137,566,-1121
2019-06-26 15:34:59.902171,127.77,-77.71,-9.71,-4141,560,-1115
2019-06-26 15:34:59.923176,127.75,-77.71,-9.72,-4147,556,-1111
2019-06-26 15:34:59.940180,127.70,-77.71,-9.72,-4145,559,-1101
2019-06-26 15:34:59.960185,127.67,-77.72,-9.71,-4139,564,-1119
2019-06-26 15:34:59.981190,127.65,-77.71,-9.71,-4139,556,-1128
2019-06-26 15:35:00.001196,127.60,-77.71,-9.72,-4146,555,-1127
2019-06-26 15:35:00.021200,127.56,-77.71,-9.72,-4147,557,-1113
2019-06-26 15:35:00.042204,127.54,-77.71,-9.72,-4148,557,-1126
2019-06-26 15:35:00.062209,127.49,-77.71,-9.72,-4141,559,-1127
2019-06-26 15:35:00.082212,127.47,-77.71,-9.72,-4148,560,-1115
2019-06-26 15:35:00.103218,127.44,-77.70,-9.73,-4144,549,-1115
2019-06-26 15:35:00.120221,127.39,-77.70,-9.73,-4142,553,-1108
2019-06-26 15:35:00.140225,127.38,-77.70,-9.73,-4150,565,-1119
2019-06-26 15:35:00.161230,127.33,-77.70,-9.73,-4149,566,-1122
2019-06-26 15:35:00.181236,127.28,-77.71,-9.72,-4148,568,-1115
2019-06-26 15:35:00.201239,127.27,-77.71,-9.73,-4147,568,-1127
2019-06-26 15:35:00.222244,127.22,-77.71,-9.73,-4138,567,-1135
2019-06-26 15:35:00.242248,127.21,-77.71,-9.72,-4134,564,-1121
2019-06-26 15:35:00.263253,127.17,-77.71,-9.72,-4140,568,-1133
2019-06-26 15:35:00.280257,127.12,-77.71,-9.72,-4135,564,-1136
2019-06-26 15:35:00.300261,127.10,-77.71,-9.72,-4133,566,-1135
2019-06-26 15:35:00.321266,127.06,-77.71,-9.72,-4137,572,-1135
2019-06-26 15:35:00.341271,127.04,-77.71,-9.72,-4138,563,-1126
2019-06-26 15:35:00.361276,127.01,-77.71,-9.72,-4142,566,-1121
2019-06-26 15:35:00.381280,126.96,-77.71,-9.72,-4141,566,-1128
2019-06-26 15:35:00.402284,126.92,-77.71,-9.72,-4144,561,-1127
2019-06-26 15:35:00.422289,126.90,-77.71,-9.72,-4139,566,-1125
2019-06-26 15:35:00.443294,126.85,-77.72,-9.71,-4144,572,-1113
2019-06-26 15:35:00.460298,126.81,-77.72,-9.71,-4145,566,-1123
2019-06-26 15:35:00.480302,126.77,-77.72,-9.71,-4146,563,-1111
2019-06-26 15:35:00.501307,126.76,-77.72,-9.71,-4147,567,-1106
2019-06-26 15:35:00.521310,126.71,-77.72,-9.71,-4141,562,-1118
2019-06-26 15:35:00.541316,126.67,-77.72,-9.71,-4138,563,-1122
2019-06-26 15:35:00.562320,126.65,-77.71,-9.72,-4138,566,-1131
2019-06-26 15:35:00.582325,126.61,-77.72,-9.72,-4142,574,-1119
2019-06-26 15:35:00.603330,126.57,-77.72,-9.71,-4133,569,-1108
2019-06-26 15:35:00.623334,126.56,-77.72,-9.72,-4133,563,-1117
2019-06-26 15:35:00.640338,126.51,-77.72,-9.72,-4140,567,-1121
2019-06-26 15:35:00.661343,126.50,-77.71,-9.72,-4134,572,-1129
2019-06-26 15:35:00.681347,126.45,-77.72,-9.71,-4132,570,-1117
2019-06-26 15:35:00.701352,126.42,-77.72,-9.72,-4126,564,-1127
2019-06-26 15:35:00.721356,126.40,-77.71,-9.72,-4129,580,-1135
2019-06-26 15:35:00.742361,126.37,-77.72,-9.71,-4134,570,-1125
2019-06-26 15:35:00.762365,126.34,-77.72,-9.71,-4144,573,-1119
2019-06-26 15:35:00.782370,126.31,-77.72,-9.72,-4141,573,-1128
2019-06-26 15:35:00.800375,126.29,-77.71,-9.72,-4150,567,-1131
2019-06-26 15:35:00.820379,126.25,-77.71,-9.72,-4138,570,-1125
2019-06-26 15:35:00.841384,126.22,-77.72,-9.72,-4136,567,-1117
2019-06-26 15:35:00.861388,126.19,-77.72,-9.71,-4151,562,-1113
2019-06-26 15:35:00.881392,126.14,-77.72,-9.71,-4145,569,-1102
2019-06-26 15:35:00.902397,126.10,-77.72,-9.72,-4138,565,-1121
2019-06-26 15:35:00.922401,126.09,-77.71,-9.72,-4137,564,-1121
2019-06-26 15:35:00.942406,126.08,-77.71,-9.72,-4134,562,-1117
2019-06-26 15:35:00.963410,126.04,-77.71,-9.73,-4126,557,-1125
2019-06-26 15:35:00.980415,126.02,-77.70,-9.73,-4128,561,-1124
2019-06-26 15:35:01.000419,125.98,-77.70,-9.73,-4129,559,-1110
2019-06-26 15:35:01.020424,125.95,-77.71,-9.72,-4136,561,-1120
2019-06-26 15:35:01.041428,125.93,-77.70,-9.73,-4134,566,-1119
2019-06-26 15:35:01.061433,125.89,-77.70,-9.73,-4136,565,-1121
2019-06-26 15:35:01.082438,125.87,-77.70,-9.73,-4136,573,-1131
2019-06-26 15:35:01.102442,125.83,-77.70,-9.73,-4130,567,-1134
2019-06-26 15:35:01.122447,125.82,-77.70,-9.73,-4128,564,-1122
2019-06-26 15:35:01.143451,125.77,-77.70,-9.72,-4127,565,-1116
2019-06-26 15:35:01.160455,125.73,-77.71,-9.73,-4136,558,-1118
2019-06-26 15:35:01.180459,125.72,-77.70,-9.73,-4142,558,-1130
2019-06-26 15:35:01.201464,125.67,-77.70,-9.73,-4140,564,-1120
2019-06-26 15:35:01.221469,125.66,-77.70,-9.73,-4136,571,-1137
2019-06-26 15:35:01.242474,125.62,-77.70,-9.73,-4135,577,-1123
2019-06-26 15:35:01.262478,125.58,-77.70,-9.73,-4140,575,-1127
2019-06-26 15:35:01.282483,125.57,-77.70,-9.73,-4141,573,-1127
2019-06-26 15:35:01.302486,125.53,-77.70,-9.73,-4137,571,-1133
2019-06-26 15:35:01.320491,125.52,-77.70,-9.73,-4139,564,-1119
2019-06-26 15:35:01.340496,125.48,-77.70,-9.73,-4138,563,-1116
2019-06-26 15:35:01.360500,125.44,-77.70,-9.73,-4140,559,-1104
2019-06-26 15:35:01.381506,125.38,-77.71,-9.73,-4141,562,-1100
2019-06-26 15:35:01.401511,125.37,-77.70,-9.73,-4142,563,-1101
2019-06-26 15:35:01.422514,125.34,-77.71,-9.72,-4142,566,-1117
2019-06-26 15:35:01.442518,125.29,-77.71,-9.73,-4141,560,-1112
2019-06-26 15:35:01.462523,125.28,-77.70,-9.73,-4140,563,-1116
2019-06-26 15:35:01.483528,125.30,-77.74,-9.66,-4138,559,-1122
2019-06-26 15:35:01.500531,125.40,-77.81,-9.52,-4142,547,-1116
2019-06-26 15:35:01.520535,125.48,-77.88,-9.38,-4138,540,-1100
2019-06-26 15:35:01.541540,125.56,-77.94,-9.25,-4129,533,-1112
2019-06-26 15:35:01.561544,125.63,-78.00,-9.12,-4130,529,-1099
2019-06-26 15:35:01.582549,125.69,-78.06,-8.99,-4139,517,-1081
2019-06-26 15:35:01.602555,125.78,-78.12,-8.86,-4132,499,-1077
2019-06-26 15:35:01.622559,125.85,-78.17,-8.74,-4133,493,-1083
2019-06-26 15:35:01.642564,125.91,-78.23,-8.62,-4135,484,-1076
2019-06-26 15:35:01.659567,125.99,-78.27,-8.49,-4134,478,-1080
2019-06-26 15:35:01.680573,126.06,-78.33,-8.38,-4135,475,-1085
2019-06-26 15:35:01.700577,126.12,-78.38,-8.25,-4128,469,-1071
2019-06-26 15:35:01.721582,126.18,-78.42,-8.14,-4132,456,-1071
2019-06-26 15:35:01.741586,126.27,-78.45,-8.03,-4133,446,-1066
2019-06-26 15:35:01.761592,126.30,-78.50,-7.91,-4136,433,-1052
2019-06-26 15:35:01.782596,126.36,-78.55,-7.80,-4135,420,-1056
2019-06-26 15:35:01.802599,126.45,-78.58,-7.70,-4136,412,-1050
2019-06-26 15:35:01.822604,126.52,-78.61,-7.59,-4139,407,-1046
2019-06-26 15:35:01.840609,126.58,-78.65,-7.48,-4129,398,-1057
2019-06-26 15:35:01.860614,126.65,-78.68,-7.38,-4134,401,-1044
2019-06-26 15:35:01.881618,126.68,-78.72,-7.28,-4131,393,-1014
2019-06-26 15:35:01.901622,126.74,-78.74,-7.18,-4127,388,-1018
2019-06-26 15:35:01.921626,126.77,-78.78,-7.08,-4133,378,-1020
2019-06-26 15:35:01.941631,126.84,-78.80,-6.98,-4137,373,-1030
2019-06-26 15:35:01.962637,126.90,-78.83,-6.88,-4125,368,-1030
2019-06-26 15:35:01.982640,126.96,-78.85,-6.79,-4135,355,-1032
2019-06-26 15:35:02.003645,127.01,-78.87,-6.70,-4133,345,-1033
2019-06-26 15:35:02.020649,127.05,-78.89,-6.61,-4128,341,-1012
2019-06-26 15:35:02.040654,127.11,-78.91,-6.51,-4138,332,-1016
2019-06-26 15:35:02.061658,127.15,-78.93,-6.43,-4130,329,-1015
2019-06-26 15:35:02.081662,127.21,-78.95,-6.34,-4119,329,-1018
2019-06-26 15:35:02.101667,127.28,-78.96,-6.26,-4123,322,-1016
2019-06-26 15:35:02.122672,127.31,-78.99,-6.17,-4126,311,-1003
2019-06-26 15:35:02.142676,127.34,-79.00,-6.09,-4134,298,-992
2019-06-26 15:35:02.162680,127.41,-79.01,-6.01,-4135,294,-1006
2019-06-26 15:35:02.180685,127.44,-79.03,-5.93,-4132,289,-988
2019-06-26 15:35:02.200690,127.48,-79.04,-5.84,-4131,290,-982
2019-06-26 15:35:02.221695,127.51,-79.06,-5.77,-4126,275,-988
2019-06-26 15:35:02.241699,127.57,-79.06,-5.69,-4114,280,-988
2019-06-26 15:35:02.261703,127.61,-79.07,-5.62,-4115,270,-980
2019-06-26 15:35:02.281708,127.65,-79.09,-5.54,-4123,262,-970
2019-06-26 15:35:02.302714,127.71,-79.09,-5.47,-4123,258,-972
2019-06-26 15:35:02.322717,127.73,-79.10,-5.40,-4118,256,-972
2019-06-26 15:35:02.343722,127.79,-79.11,-5.33,-4122,250,-971
2019-06-26 15:35:02.360726,127.80,-79.12,-5.26,-4125,247,-965
2019-06-26 15:35:02.380731,127.83,-79.13,-5.19,-4120,247,-958
2019-06-26 15:35:02.401735,127.88,-79.13,-5.12,-4128,243,-966
2019-06-26 15:35:02.421739,127.92,-79.14,-5.05,-4128,230,-959
2019-06-26 15:35:02.441744,127.94,-79.14,-4.99,-4132,225,-961
2019-06-26 15:35:02.461747,127.98,-79.15,-4.92,-4132,224,-974
2019-06-26 15:35:02.482753,128.02,-79.14,-4.86,-4118,214,-973
2019-06-26 15:35:02.502757,128.07,-79.15,-4.80,-4130,209,-967
2019-06-26 15:35:02.523763,128.10,-79.15,-4.74,-4130,217,-959
2019-06-26 15:35:02.540766,128.14,-79.15,-4.67,-4134,220,-933
2019-06-26 15:35:02.560770,128.17,-79.16,-4.61,-4135,201,-956
2019-06-26 15:35:02.580775,128.21,-79.15,-4.56,-4132,194,-954
2019-06-26 15:35:02.601780,128.21,-79.16,-4.49,-4120,188,-964
2019-06-26 15:35:02.621784,128.28,-79.15,-4.44,-4112,182,-958
2019-06-26 15:35:02.642789,128.29,-79.16,-4.38,-4116,176,-945
2019-06-26 15:35:02.662793,128.34,-79.15,-4.33,-4120,175,-955
2019-06-26 15:35:02.683798,128.37,-79.15,-4.27,-4118,172,-945
2019-06-26 15:35:02.700802,128.41,-79.15,-4.22,-4122,169,-946
2019-06-26 15:35:02.720806,128.44,-79.14,-4.17,-4113,170,-947
2019-06-26 15:35:02.741811,128.46,-79.14,-4.11,-4114,167,-949
2019-06-26 15:35:02.761815,128.50,-79.14,-4.06,-4112,171,-935
2019-06-26 15:35:02.781851,128.53,-79.14,-4.01,-4115,155,-940
2019-06-26 15:35:02.801873,128.58,-79.13,-3.96,-4113,153,-942
2019-06-26 15:35:02.822878,128.60,-79.13,-3.92,-4116,145,-954
2019-06-26 15:35:02.842866,128.63,-79.12,-3.87,-4113,145,-937
2019-06-26 15:35:02.862869,128.65,-79.13,-3.82,-4114,149,-928
2019-06-26 15:35:02.880875,128.68,-79.12,-3.77,-4125,150,-920
2019-06-26 15:35:02.900877,128.70,-79.12,-3.72,-4115,136,-924
2019-06-26 15:35:02.920882,128.74,-79.11,-3.68,-4117,134,-925
2019-06-26 15:35:02.941888,128.76,-79.11,-3.64,-4121,135,-932
2019-06-26 15:35:02.961893,128.77,-79.11,-3.59,-4122,132,-938
2019-06-26 15:35:02.982897,128.81,-79.10,-3.55,-4113,121,-943
2019-06-26 15:35:03.002900,128.85,-79.09,-3.51,-4116,118,-935
2019-06-26 15:35:03.022906,128.86,-79.09,-3.47,-4122,120,-915
2019-06-26 15:35:03.040909,128.89,-79.08,-3.43,-4126,124,-918
2019-06-26 15:35:03.060915,128.89,-79.08,-3.39,-4120,121,-908
2019-06-26 15:35:03.080918,128.91,-79.08,-3.35,-4110,113,-900
2019-06-26 15:35:03.100922,128.95,-79.07,-3.31,-4110,108,-911
2019-06-26 15:35:03.121927,128.97,-79.07,-3.27,-4121,106,-924
2019-06-26 15:35:03.141950,128.97,-79.06,-3.23,-4119,99,-902
2019-06-26 15:35:03.162937,129.00,-79.06,-3.19,-4120,95,-898
2019-06-26 15:35:03.182941,129.00,-79.06,-3.16,-4121,100,-901
2019-06-26 15:35:03.202945,129.02,-79.05,-3.12,-4129,94,-895
2019-06-26 15:35:03.219950,129.06,-79.04,-3.09,-4130,86,-905
2019-06-26 15:35:03.240972,129.08,-79.04,-3.06,-4119,90,-919
2019-06-26 15:35:03.260977,129.10,-79.03,-3.02,-4109,85,-907
2019-06-26 15:35:03.281981,129.12,-79.03,-2.99,-4118,82,-896
2019-06-26 15:35:03.302969,129.14,-79.02,-2.96,-4121,75,-890
2019-06-26 15:35:03.322991,129.16,-79.02,-2.92,-4123,74,-888
2019-06-26 15:35:03.342995,129.17,-79.01,-2.89,-4118,78,-895
2019-06-26 15:35:03.363000,129.18,-79.01,-2.86,-4116,78,-897
2019-06-26 15:35:03.382986,129.20,-79.00,-2.83,-4118,71,-895
2019-06-26 15:35:03.400008,129.22,-79.00,-2.79,-4118,69,-891
2019-06-26 15:35:03.421013,129.23,-78.99,-2.76,-4119,68,-896
2019-06-26 15:35:03.440999,129.26,-78.99,-2.74,-4123,73,-907
2019-06-26 15:35:03.462022,129.27,-78.98,-2.71,-4123,72,-900
2019-06-26 15:35:03.483027,129.29,-78.98,-2.67,-4125,67,-901
2019-06-26 15:35:03.503013,129.30,-78.97,-2.65,-4126,66,-900
2019-06-26 15:35:03.523019,129.33,-78.96,-2.62,-4120,55,-900
2019-06-26 15:35:03.543024,129.35,-78.96,-2.59,-4121,49,-885
2019-06-26 15:35:03.560027,129.36,-78.95,-2.56,-4120,54,-876
2019-06-26 15:35:03.581032,129.38,-78.95,-2.54,-4119,47,-875
2019-06-26 15:35:03.601035,129.39,-78.94,-2.51,-4116,49,-891
2019-06-26 15:35:03.622040,129.39,-78.94,-2.49,-4115,50,-881
2019-06-26 15:35:03.642044,129.42,-78.93,-2.46,-4119,46,-883
2019-06-26 15:35:03.663050,129.42,-78.93,-2.44,-4118,41,-868
2019-06-26 15:35:03.683054,129.42,-78.93,-2.41,-4121,43,-865
2019-06-26 15:35:03.703059,129.44,-78.92,-2.39,-4121,44,-878
2019-06-26 15:35:03.723063,129.47,-78.92,-2.36,-4123,57,-891
2019-06-26 15:35:03.741067,129.47,-78.91,-2.34,-4119,42,-896
2019-06-26 15:35:03.761073,129.49,-78.91,-2.31,-4120,42,-892
2019-06-26 15:35:03.781076,129.50,-78.90,-2.29,-4119,42,-884
2019-06-26 15:35:03.802081,129.52,-78.90,-2.26,-4117,42,-888
2019-06-26 15:35:03.822085,129.52,-78.89,-2.24,-4117,33,-897
2019-06-26 15:35:03.843090,129.53,-78.89,-2.22,-4124,33,-891
2019-06-26 15:35:03.863094,129.55,-78.88,-2.20,-4115,30,-889
2019-06-26 15:35:03.883099,129.57,-78.87,-2.18,-4122,28,-888
2019-06-26 15:35:03.904103,129.60,-78.87,-2.16,-4119,28,-877
2019-06-26 15:35:03.921107,129.59,-78.87,-2.14,-4121,28,-861
2019-06-26 15:35:03.941112,129.62,-78.86,-2.11,-4120,20,-869
2019-06-26 15:35:03.962135,129.61,-78.86,-2.10,-4123,23,-872
2019-06-26 15:35:03.982139,129.63,-78.85,-2.08,-4124,15,-884
2019-06-26 15:35:04.002144,129.65,-78.84,-2.06,-4114,15,-886
2019-06-26 15:35:04.022148,129.66,-78.84,-2.04,-4125,15,-869
2019-06-26 15:35:04.043153,129.67,-78.84,-2.02,-4121,16,-871
2019-06-26 15:35:04.063157,129.68,-78.83,-2.01,-4121,13,-869
2019-06-26 15:35:04.080143,129.68,-78.83,-2.00,-4123,9,-858
2019-06-26 15:35:04.101148,129.69,-78.82,-1.98,-4123,14,-865
2019-06-26 15:35:04.121154,129.70,-78.82,-1.96,-4122,15,-862
2019-06-26 15:35:04.142159,129.71,-78.81,-1.94,-4121,13,-866
2019-06-26 15:35:04.162162,129.73,-78.81,-1.92,-4126,10,-868
2019-06-26 15:35:04.182166,129.71,-78.81,-1.91,-4125,9,-866
2019-06-26 15:35:04.203171,129.73,-78.80,-1.89,-4121,5,-864
2019-06-26 15:35:04.223176,129.72,-78.81,-1.88,-4121,9,-875
2019-06-26 15:35:04.244181,129.75,-78.80,-1.86,-4126,6,-870
2019-06-26 15:35:04.261184,129.75,-78.80,-1.85,-4122,8,-873
2019-06-26 15:35:04.281189,129.77,-78.79,-1.83,-4128,4,-851
2019-06-26 15:35:04.302194,129.77,-78.79,-1.81,-4127,-1,-854
2019-06-26 15:35:04.322198,129.77,-78.79,-1.80,-4127,0,-862
2019-06-26 15:35:04.342203,129.78,-78.78,-1.78,-4128,-1,-870
2019-06-26 15:35:04.362206,129.78,-78.78,-1.77,-4129,-4,-856
2019-06-26 15:35:04.383211,129.80,-78.77,-1.76,-4132,-1,-858
2019-06-26 15:35:04.403216,129.81,-78.77,-1.75,-4131,0,-858
2019-06-26 15:35:04.420220,129.81,-78.77,-1.73,-4145,2,-859
2019-06-26 15:35:04.441225,129.81,-78.76,-1.72,-4136,3,-869
2019-06-26 15:35:04.461229,129.84,-78.75,-1.70,-4137,0,-864
2019-06-26 15:35:04.482234,129.84,-78.75,-1.69,-4136,-9,-859
2019-06-26 15:35:04.502238,129.84,-78.75,-1.68,-4132,-11,-855
2019-06-26 15:35:04.522242,129.87,-78.74,-1.66,-4126,-9,-857
2019-06-26 15:35:04.543248,129.86,-78.75,-1.65,-4130,-10,-847
2019-06-26 15:35:04.563253,129.87,-78.75,-1.64,-4131,-8,-857
2019-06-26 15:35:04.584257,129.86,-78.75,-1.62,-4137,3,-842
2019-06-26 15:35:04.601262,129.85,-78.75,-1.61,-4133,7,-845
2019-06-26 15:35:04.621267,129.88,-78.74,-1.60,-4135,2,-851
2019-06-26 15:35:04.641269,129.87,-78.74,-1.59,-4136,-7,-849
2019-06-26 15:35:04.662275,129.88,-78.74,-1.57,-4127,-11,-851
2019-06-26 15:35:04.682279,129.87,-78.74,-1.56,-4120,-24,-841
2019-06-26 15:35:04.702284,129.88,-78.74,-1.56,-4127,-18,-856
2019-06-26 15:35:04.723288,129.91,-78.73,-1.54,-4126,-11,-861
2019-06-26 15:35:04.743292,129.90,-78.73,-1.53,-4137,-10,-861
2019-06-26 15:35:04.764298,129.90,-78.73,-1.52,-4142,-6,-846
2019-06-26 15:35:04.781319,129.90,-78.72,-1.51,-4143,-10,-855
2019-06-26 15:35:04.801306,129.91,-78.72,-1.49,-4144,-15,-859
2019-06-26 15:35:04.822311,129.90,-78.72,-1.48,-4145,-18,-867
2019-06-26 15:35:04.842315,129.92,-78.71,-1.48,-4133,-23,-878
2019-06-26 15:35:04.862319,129.93,-78.71,-1.47,-4134,-27,-860
2019-06-26 15:35:04.883326,129.92,-78.71,-1.46,-4131,-23,-847
2019-06-26 15:35:04.903347,129.92,-78.71,-1.45,-4129,-18,-853
2019-06-26 15:35:04.923351,129.91,-78.71,-1.44,-4139,-26,-838
2019-06-26 15:35:04.944338,129.91,-78.71,-1.43,-4131,-26,-837
2019-06-26 15:35:04.962342,129.95,-78.70,-1.42,-4132,-24,-859
2019-06-26 15:35:04.982347,129.94,-78.70,-1.41,-4120,-29,-872
2019-06-26 15:35:05.002351,129.96,-78.69,-1.40,-4127,-24,-862
2019-06-26 15:35:05.022355,129.96,-78.69,-1.39,-4122,-31,-854
2019-06-26 15:35:05.042360,129.96,-78.69,-1.39,-4128,-31,-845
2019-06-26 15:35:05.063365,129.96,-78.69,-1.38,-4131,-28,-837
2019-06-26 15:35:05.083369,129.95,-78.69,-1.37,-4134,-35,-844
2019-06-26 15:35:05.103373,129.99,-78.68,-1.36,-4141,-33,-855
2019-06-26 15:35:05.121378,129.98,-78.68,-1.35,-4136,-30,-840
2019-06-26 15:35:05.141382,129.98,-78.68,-1.34,-4132,-32,-851
2019-06-26 15:35:05.162387,130.01,-78.68,-1.34,-4132,-32,-838
2019-06-26 15:35:05.182409,129.98,-78.68,-1.33,-4132,-33,-843
2019-06-26 15:35:05.202414,130.00,-78.68,-1.32,-4133,-33,-853
2019-06-26 15:35:05.223419,130.01,-78.67,-1.32,-4132,-26,-863
2019-06-26 15:35:05.243423,130.00,-78.67,-1.31,-4131,-34,-865
2019-06-26 15:35:05.263428,130.02,-78.67,-1.30,-4131,-24,-862
2019-06-26 15:35:05.283414,130.03,-78.66,-1.29,-4133,-30,-857
2019-06-26 15:35:05.301419,130.02,-78.66,-1.28,-4131,-38,-854
2019-06-26 15:35:05.321423,130.05,-78.66,-1.28,-4130,-42,-857
2019-06-26 15:35:05.341427,130.04,-78.66,-1.27,-4134,-42,-849
2019-06-26 15:35:05.362433,130.05,-78.65,-1.27,-4135,-42,-849
2019-06-26 15:35:05.382437,130.05,-78.65,-1.26,-4132,-37,-844
2019-06-26 15:35:05.403442,130.05,-78.65,-1.25,-4127,-40,-833
2019-06-26 15:35:05.423445,130.04,-78.65,-1.25,-4133,-35,-832
2019-06-26 15:35:05.443451,130.05,-78.65,-1.24,-4125,-33,-830
2019-06-26 15:35:05.463455,130.04,-78.65,-1.23,-4130,-45,-850
2019-06-26 15:35:05.481459,130.07,-78.64,-1.23,-4127,-46,-859
2019-06-26 15:35:05.501464,130.08,-78.64,-1.23,-4122,-46,-863
2019-06-26 15:35:05.522468,130.10,-78.63,-1.23,-4127,-53,-862
2019-06-26 15:35:05.542473,130.09,-78.63,-1.22,-4131,-42,-865
2019-06-26 15:35:05.562495,130.09,-78.63,-1.22,-4139,-43,-865
2019-06-26 15:35:05.583482,130.11,-78.62,-1.21,-4136,-37,-858
2019-06-26 15:35:05.603487,130.12,-78.62,-1.21,-4130,-39,-848
2019-06-26 15:35:05.623491,130.13,-78.62,-1.20,-4126,-38,-855
2019-06-26 15:35:05.640495,130.11,-78.62,-1.20,-4133,-41,-855
2019-06-26 15:35:05.661500,130.15,-78.61,-1.19,-4142,-48,-860
2019-06-26 15:35:05.681504,130.15,-78.61,-1.19,-4132,-41,-840
2019-06-26 15:35:05.702509,130.14,-78.61,-1.18,-4127,-47,-841
2019-06-26 15:35:05.722513,130.14,-78.61,-1.18,-4127,-42,-847
2019-06-26 15:35:05.743518,130.15,-78.61,-1.18,-4133,-41,-841
2019-06-26 15:35:05.763522,130.15,-78.61,-1.17,-4141,-35,-837
2019-06-26 15:35:05.783526,130.15,-78.61,-1.17,-4137,-41,-852
2019-06-26 15:35:05.803532,130.16,-78.60,-1.16,-4134,-38,-852
2019-06-26 15:35:05.821536,130.17,-78.60,-1.15,-4132,-36,-847
2019-06-26 15:35:05.841540,130.17,-78.60,-1.15,-4127,-34,-842
2019-06-26 15:35:05.862545,130.17,-78.60,-1.14,-4122,-34,-851
2019-06-26 15:35:05.882550,130.18,-78.60,-1.14,-4125,-37,-841
2019-06-26 15:35:05.902554,130.16,-78.60,-1.13,-4133,-40,-847
2019-06-26 15:35:05.922559,130.17,-78.60,-1.13,-4129,-36,-846
2019-06-26 15:35:05.943581,130.17,-78.60,-1.12,-4131,-44,-847
2019-06-26 15:35:05.963585,130.17,-78.60,-1.12,-4122,-40,-838
2019-06-26 15:35:05.984573,130.18,-78.60,-1.11,-4127,-42,-840
2019-06-26 15:35:06.001576,130.18,-78.60,-1.11,-4132,-37,-846
2019-06-26 15:35:06.021580,130.19,-78.59,-1.10,-4130,-47,-839
2019-06-26 15:35:06.042604,130.19,-78.59,-1.10,-4122,-60,-841
2019-06-26 15:35:06.062608,130.19,-78.59,-1.09,-4130,-45,-842
2019-06-26 15:35:06.083595,130.20,-78.59,-1.09,-4133,-41,-841
2019-06-26 15:35:06.103617,130.21,-78.59,-1.08,-4126,-40,-860
2019-06-26 15:35:06.123622,130.21,-78.58,-1.08,-4128,-37,-855
2019-06-26 15:35:06.143626,130.20,-78.59,-1.07,-4136,-41,-841
2019-06-26 15:35:06.161630,130.20,-78.59,-1.07,-4130,-45,-836
2019-06-26 15:35:06.181617,130.23,-78.58,-1.07,-4133,-50,-837
2019-06-26 15:35:06.201639,130.22,-78.58,-1.07,-4124,-48,-845
2019-06-26 15:35:06.222644,130.23,-78.58,-1.06,-4125,-51,-851
2019-06-26 15:35:06.242649,130.23,-78.58,-1.06,-4126,-49,-843
2019-06-26 15:35:06.262653,130.24,-78.58,-1.05,-4124,-53,-821
2019-06-26 15:35:06.283657,130.24,-78.58,-1.05,-4119,-52,-833
2019-06-26 15:35:06.303645,130.24,-78.58,-1.06,-4125,-55,-844
2019-06-26 15:35:06.324649,130.25,-78.58,-1.05,-4128,-56,-840
2019-06-26 15:35:06.341654,130.25,-78.58,-1.05,-4131,-56,-848
2019-06-26 15:35:06.361657,130.25,-78.58,-1.05,-4134,-50,-858
2019-06-26 15:35:06.382663,130.26,-78.57,-1.04,-4134,-50,-840
2019-06-26 15:35:06.402666,130.24,-78.58,-1.04,-4137,-54,-841
2019-06-26 15:35:06.422671,130.26,-78.57,-1.04,-4134,-52,-842
2019-06-26 15:35:06.443676,130.27,-78.57,-1.04,-4126,-48,-836
2019-06-26 15:35:06.463681,130.26,-78.57,-1.03,-4123,-50,-827
2019-06-26 15:35:06.483684,130.24,-78.58,-1.03,-4134,-53,-830
2019-06-26 15:35:06.500688,130.24,-78.58,-1.03,-4135,-52,-833
2019-06-26 15:35:06.521711,130.24,-78.58,-1.03,-4130,-52,-832
2019-06-26 15:35:06.541698,130.28,-78.57,-1.02,-4120,-48,-839
2019-06-26 15:35:06.562703,130.26,-78.57,-1.02,-4124,-45,-843
2019-06-26 15:35:06.582707,130.27,-78.57,-1.01,-4126,-51,-839
2019-06-26 15:35:06.602712,130.27,-78.57,-1.01,-4133,-52,-844
2019-06-26 15:35:06.623716,130.27,-78.57,-1.01,-4127,-51,-841
2019-06-26 15:35:06.643722,130.28,-78.57,-1.01,-4117,-49,-821
2019-06-26 15:35:06.664726,130.28,-78.57,-1.01,-4125,-57,-841
2019-06-26 15:35:06.681731,130.27,-78.57,-1.00,-4130,-63,-842
2019-06-26 15:35:06.701734,130.27,-78.57,-1.00,-4127,-61,-841
2019-06-26 15:35:06.722739,130.28,-78.57,-1.00,-4131,-55,-839
2019-06-26 15:35:06.742743,130.28,-78.57,-1.00,-4129,-55,-831
2019-06-26 15:35:06.762747,130.28,-78.57,-0.99,-4133,-57,-833
2019-06-26 15:35:06.782752,130.28,-78.57,-0.99,-4127,-53,-841
2019-06-26 15:35:06.803756,130.28,-78.57,-0.99,-4123,-63,-848
2019-06-26 15:35:06.823761,130.28,-78.57,-0.99,-4136,-62,-837
2019-06-26 15:35:06.844766,130.31,-78.56,-0.99,-4136,-68,-843
2019-06-26 15:35:06.861770,130.31,-78.56,-0.99,-4125,-66,-837
2019-06-26 15:35:06.881774,130.32,-78.56,-0.99,-4124,-62,-843
2019-06-26 15:35:06.902797,130.32,-78.56,-0.99,-4127,-63,-851
2019-06-26 15:35:06.922802,130.32,-78.56,-0.99,-4134,-62,-851
2019-06-26 15:35:06.942806,130.32,-78.56,-0.99,-4131,-58,-838
2019-06-26 15:35:06.963811,130.33,-78.56,-0.98,-4132,-62,-833
2019-06-26 15:35:06.983815,130.33,-78.56,-0.98,-4131,-63,-839
2019-06-26 15:35:07.003820,130.35,-78.55,-0.98,-4134,-54,-850
2019-06-26 15:35:07.021808,130.36,-78.55,-0.98,-4123,-55,-861
2019-06-26 15:35:07.042812,130.36,-78.55,-0.98,-4117,-56,-840
2019-06-26 15:35:07.062815,130.36,-78.55,-0.98,-4132,-51,-839
2019-06-26 15:35:07.082820,130.35,-78.55,-0.97,-4120,-45,-836
2019-06-26 15:35:07.102824,130.35,-78.55,-0.97,-4127,-53,-843
2019-06-26 15:35:07.122828,130.35,-78.55,-0.97,-4139,-52,-851
2019-06-26 15:35:07.143833,130.35,-78.55,-0.97,-4131,-55,-841
2019-06-26 15:35:07.163838,130.36,-78.55,-0.96,-4137,-53,-842
2019-06-26 15:35:07.184842,130.36,-78.55,-0.96,-4137,-58,-854
2019-06-26 15:35:07.201847,130.36,-78.55,-0.96,-4136,-62,-834
2019-06-26 15:35:07.221852,130.36,-78.55,-0.96,-4133,-62,-842
2019-06-26 15:35:07.241856,130.39,-78.54,-0.96,-4127,-60,-844
2019-06-26 15:35:07.262860,130.39,-78.53,-0.96,-4132,-65,-845
2019-06-26 15:35:07.282865,130.37,-78.54,-0.96,-4126,-58,-827
2019-06-26 15:35:07.303870,130.37,-78.54,-0.96,-4126,-60,-838
2019-06-26 15:35:07.323874,130.39,-78.53,-0.96,-4121,-54,-833
2019-06-26 15:35:07.343896,130.37,-78.54,-0.96,-4128,-57,-851
2019-06-26 15:35:07.364901,130.37,-78.54,-0.96,-4128,-65,-841
2019-06-26 15:35:07.381887,130.40,-78.53,-0.95,-4129,-64,-842
2019-06-26 15:35:07.402892,130.40,-78.53,-0.95,-4125,-53,-840
2019-06-26 15:35:07.422914,130.40,-78.53,-0.95,-4126,-70,-838
2019-06-26 15:35:07.442901,130.40,-78.53,-0.95,-4135,-63,-850
2019-06-26 15:35:07.462923,130.42,-78.53,-0.96,-4142,-69,-845
2019-06-26 15:35:07.483928,130.44,-78.53,-0.96,-4140,-72,-855
2019-06-26 15:35:07.503932,130.44,-78.53,-0.96,-4139,-74,-848
2019-06-26 15:35:07.524937,130.42,-78.52,-0.95,-4137,-66,-843
2019-06-26 15:35:07.540941,130.42,-78.52,-0.95,-4139,-60,-834
2019-06-26 15:35:07.561945,130.43,-78.53,-0.95,-4138,-62,-826
2019-06-26 15:35:07.581950,130.41,-78.53,-0.95,-4134,-53,-809
2019-06-26 15:35:07.602955,130.41,-78.53,-0.95,-4131,-53,-821
2019-06-26 15:35:07.622959,130.41,-78.53,-0.95,-4122,-51,-800
2019-06-26 15:35:07.642964,130.39,-78.54,-0.95,-4124,-57,-804
2019-06-26 15:35:07.663969,130.41,-78.54,-0.94,-4128,-58,-833
2019-06-26 15:35:07.683955,130.41,-78.54,-0.94,-4130,-59,-848
2019-06-26 15:35:07.703961,130.44,-78.53,-0.95,-4132,-57,-834
2019-06-26 15:35:07.721964,130.44,-78.53,-0.95,-4125,-59,-838
2019-06-26 15:35:07.741968,130.44,-78.53,-0.95,-4120,-60,-839
2019-06-26 15:35:07.762973,130.42,-78.53,-0.94,-4122,-60,-841
2019-06-26 15:35:07.782979,130.44,-78.53,-0.95,-4133,-63,-830
2019-06-26 15:35:07.802981,130.44,-78.53,-0.95,-4126,-59,-831
2019-06-26 15:35:07.823986,130.43,-78.53,-0.94,-4129,-59,-827
2019-06-26 15:35:07.843991,130.44,-78.53,-0.94,-4129,-59,-826
2019-06-26 15:35:07.864996,130.44,-78.53,-0.94,-4141,-64,-815
2019-06-26 15:35:07.885000,130.41,-78.54,-0.94,-4138,-55,-818
2019-06-26 15:35:07.902004,130.41,-78.54,-0.94,-4137,-61,-828
2019-06-26 15:35:07.922010,130.41,-78.54,-0.94,-4136,-56,-836
2019-06-26 15:35:07.943013,130.42,-78.54,-0.93,-4138,-54,-823
2019-06-26 15:35:07.963018,130.42,-78.54,-0.93,-4127,-61,-824
2019-06-26 15:35:07.983022,130.43,-78.54,-0.93,-4129,-60,-826
2019-06-26 15:35:08.004029,130.43,-78.54,-0.93,-4130,-65,-828
2019-06-26 15:35:08.024032,130.43,-78.54,-0.93,-4133,-59,-836
2019-06-26 15:35:08.044036,130.43,-78.54,-0.93,-4126,-57,-835
2019-06-26 15:35:08.061040,130.43,-78.54,-0.93,-4121,-66,-846
2019-06-26 15:35:08.082045,130.43,-78.54,-0.93,-4123,-61,-837
2019-06-26 15:35:08.102067,130.43,-78.54,-0.93,-4123,-69,-841
2019-06-26 15:35:08.123072,130.43,-78.54,-0.93,-4125,-70,-828
2019-06-26 15:35:08.143077,130.43,-78.54,-0.93,-4117,-64,-842
2019-06-26 15:35:08.164081,130.45,-78.53,-0.93,-4134,-71,-832
2019-06-26 15:35:08.184086,130.43,-78.54,-0.93,-4131,-62,-832
2019-06-26 15:35:08.204090,130.45,-78.54,-0.94,-4136,-68,-831
2019-06-26 15:35:08.225095,130.45,-78.54,-0.93,-4123,-69,-838
2019-06-26 15:35:08.242099,130.45,-78.54,-0.93,-4124,-66,-844
2019-06-26 15:35:08.262103,130.48,-78.53,-0.93,-4128,-66,-845
2019-06-26 15:35:08.282108,130.49,-78.53,-0.93,-4127,-63,-836
2019-06-26 15:35:08.303095,130.49,-78.53,-0.93,-4126,-62,-840
2019-06-26 15:35:08.323099,130.49,-78.53,-0.93,-4119,-57,-851
2019-06-26 15:35:08.344104,130.49,-78.53,-0.93,-4125,-57,-838
2019-06-26 15:35:08.364108,130.50,-78.53,-0.92,-4122,-62,-835
2019-06-26 15:35:08.384112,130.50,-78.53,-0.92,-4119,-58,-845
2019-06-26 15:35:08.405136,130.50,-78.53,-0.92,-4119,-53,-834
2019-06-26 15:35:08.422122,130.49,-78.53,-0.91,-4125,-42,-825
2019-06-26 15:35:08.442127,130.49,-78.53,-0.91,-4129,-51,-836
2019-06-26 15:35:08.463130,130.49,-78.53,-0.91,-4130,-54,-833
2019-06-26 15:35:08.483135,130.51,-78.53,-0.92,-4132,-54,-834
2019-06-26 15:35:08.504140,130.51,-78.53,-0.92,-4134,-60,-844
2019-06-26 15:35:08.524144,130.53,-78.52,-0.92,-4131,-64,-855
2019-06-26 15:35:08.544149,130.54,-78.52,-0.91,-4129,-62,-846
2019-06-26 15:35:08.564153,130.54,-78.52,-0.91,-4131,-64,-846
2019-06-26 15:35:08.581159,130.54,-78.52,-0.91,-4131,-62,-835
2019-06-26 15:35:08.602162,130.55,-78.52,-0.92,-4127,-59,-837
2019-06-26 15:35:08.622166,130.55,-78.52,-0.92,-4131,-60,-814
2019-06-26 15:35:08.643171,130.55,-78.52,-0.92,-4124,-58,-826
2019-06-26 15:35:08.663176,130.56,-78.52,-0.91,-4126,-56,-837
2019-06-26 15:35:08.684199,130.56,-78.52,-0.91,-4119,-65,-833
2019-06-26 15:35:08.704203,130.56,-78.52,-0.91,-4116,-62,-834
2019-06-26 15:35:08.724190,130.56,-78.52,-0.91,-4116,-44,-824
2019-06-26 15:35:08.745212,130.56,-78.52,-0.91,-4123,-52,-823
2019-06-26 15:35:08.762216,130.56,-78.52,-0.91,-4119,-55,-846
2019-06-26 15:35:08.782202,130.58,-78.52,-0.92,-4116,-63,-848
2019-06-26 15:35:08.803218,130.57,-78.51,-0.92,-4120,-59,-849
2019-06-26 15:35:08.823221,130.57,-78.51,-0.91,-4120,-58,-840
2019-06-26 15:35:08.844226,130.57,-78.52,-0.91,-4128,-57,-832
2019-06-26 15:35:08.864230,130.58,-78.52,-0.91,-4132,-61,-832
2019-06-26 15:35:08.884235,130.58,-78.52,-0.91,-4123,-64,-825
2019-06-26 15:35:08.904239,130.58,-78.52,-0.91,-4131,-65,-824
2019-06-26 15:35:08.925244,130.59,-78.52,-0.91,-4137,-65,-838
2019-06-26 15:35:08.942248,130.59,-78.52,-0.91,-4129,-68,-831
2019-06-26 15:35:08.962252,130.59,-78.52,-0.91,-4129,-64,-830
2019-06-26 15:35:08.983257,130.57,-78.52,-0.91,-4131,-66,-826
2019-06-26 15:35:09.003261,130.59,-78.52,-0.91,-4127,-62,-850
2019-06-26 15:35:09.024266,130.59,-78.52,-0.91,-4127,-65,-855
2019-06-26 15:35:09.044271,130.59,-78.52,-0.91,-4127,-62,-850
2019-06-26 15:35:09.064275,130.61,-78.51,-0.91,-4130,-60,-852
2019-06-26 15:35:09.085302,130.61,-78.52,-0.91,-4131,-61,-825
2019-06-26 15:35:09.102328,130.61,-78.52,-0.91,-4137,-64,-833
2019-06-26 15:35:09.122332,130.61,-78.52,-0.91,-4127,-67,-833
2019-06-26 15:35:09.143320,130.61,-78.52,-0.91,-4123,-65,-838
2019-06-26 15:35:09.163323,130.61,-78.51,-0.91,-4119,-59,-834
2019-06-26 15:35:09.183328,130.62,-78.52,-0.91,-4122,-59,-833
2019-06-26 15:35:09.203333,130.62,-78.51,-0.91,-4131,-58,-841
2019-06-26 15:35:09.224337,130.62,-78.51,-0.91,-4135,-57,-837
2019-06-26 15:35:09.244341,130.60,-78.51,-0.90,-4132,-62,-843
2019-06-26 15:35:09.265346,130.60,-78.51,-0.90,-4123,-57,-835
2019-06-26 15:35:09.282351,130.60,-78.51,-0.90,-4125,-62,-850
2019-06-26 15:35:09.302356,130.63,-78.51,-0.90,-4127,-65,-847
2019-06-26 15:35:09.323360,130.60,-78.51,-0.90,-4136,-75,-832
2019-06-26 15:35:09.343364,130.60,-78.51,-0.90,-4133,-65,-835
2019-06-26 15:35:09.363368,130.60,-78.51,-0.90,-4139,-65,-831
2019-06-26 15:35:09.384391,130.60,-78.52,-0.90,-4139,-62,-834
2019-06-26 15:35:09.404395,130.60,-78.52,-0.90,-4131,-65,-830
2019-06-26 15:35:09.425400,130.60,-78.52,-0.90,-4125,-61,-818
2019-06-26 15:35:09.445405,130.59,-78.52,-0.90,-4132,-54,-820
2019-06-26 15:35:09.462409,130.59,-78.52,-0.90,-4136,-64,-839
2019-06-26 15:35:09.483414,130.61,-78.52,-0.90,-4136,-70,-853
2019-06-26 15:35:09.503418,130.61,-78.51,-0.90,-4131,-68,-846
2019-06-26 15:35:09.523404,130.61,-78.52,-0.90,-4134,-59,-831
2019-06-26 15:35:09.543409,130.60,-78.52,-0.89,-4141,-58,-842
2019-06-26 15:35:09.564414,130.60,-78.52,-0.89,-4138,-66,-846
2019-06-26 15:35:09.584418,130.61,-78.51,-0.90,-4140,-78,-854
2019-06-26 15:35:09.604424,130.61,-78.51,-0.90,-4138,-72,-838
2019-06-26 15:35:09.622427,130.61,-78.52,-0.90,-4138,-69,-833
2019-06-26 15:35:09.642431,130.59,-78.52,-0.90,-4142,-69,-822
2019-06-26 15:35:09.663437,130.59,-78.52,-0.90,-4135,-63,-836
2019-06-26 15:35:09.683441,130.61,-78.51,-0.90,-4135,-65,-835
2019-06-26 15:35:09.703445,130.61,-78.52,-0.90,-4134,-67,-846
2019-06-26 15:35:09.724450,130.61,-78.52,-0.90,-4132,-58,-842
2019-06-26 15:35:09.744454,130.61,-78.52,-0.90,-4133,-44,-834
2019-06-26 15:35:09.765459,130.61,-78.52,-0.90,-4133,-61,-834
2019-06-26 15:35:09.784464,130.60,-78.52,-0.90,-4134,-63,-839
2019-06-26 15:35:09.802469,130.60,-78.51,-0.90,-4134,-70,-842
2019-06-26 15:35:09.822472,130.61,-78.51,-0.90,-4132,-63,-851
2019-06-26 15:35:09.843477,130.63,-78.51,-0.90,-4139,-66,-846
2019-06-26 15:35:09.863483,130.60,-78.52,-0.90,-4140,-67,-819
2019-06-26 15:35:09.884486,130.61,-78.52,-0.90,-4144,-63,-831
2019-06-26 15:35:09.904492,130.60,-78.52,-0.90,-4137,-67,-839
2019-06-26 15:35:09.924495,130.60,-78.51,-0.90,-4135,-71,-843
2019-06-26 15:35:09.944499,130.60,-78.51,-0.90,-4141,-69,-842
2019-06-26 15:35:09.962503,130.61,-78.51,-0.90,-4135,-69,-834
2019-06-26 15:35:09.982508,130.60,-78.52,-0.89,-4136,-66,-833
2019-06-26 15:35:10.002512,130.60,-78.52,-0.89,-4135,-63,-842
2019-06-26 15:35:10.023517,130.60,-78.52,-0.89,-4140,-62,-840
2019-06-26 15:35:10.043523,130.60,-78.51,-0.89,-4137,-57,-840
2019-06-26 15:35:10.064526,130.60,-78.52,-0.89,-4133,-68,-832
2019-06-26 15:35:10.084531,130.60,-78.52,-0.89,-4129,-69,-824
2019-06-26 15:35:10.104535,130.60,-78.52,-0.89,-4130,-67,-827
2019-06-26 15:35:10.124540,130.60,-78.52,-0.89,-4132,-65,-839
2019-06-26 15:35:10.141545,130.61,-78.51,-0.90,-4122,-58,-847
2019-06-26 15:35:10.162549,130.61,-78.52,-0.90,-4126,-65,-839
2019-06-26 15:35:10.182553,130.61,-78.52,-0.90,-4132,-61,-847
2019-06-26 15:35:10.203559,130.61,-78.52,-0.90,-4134,-57,-837
2019-06-26 15:35:10.223580,130.61,-78.52,-0.90,-4129,-67,-839
2019-06-26 15:35:10.244585,130.61,-78.52,-0.90,-4131,-57,-841
2019-06-26 15:35:10.264571,130.60,-78.51,-0.89,-4128,-68,-835
2019-06-26 15:35:10.284576,130.61,-78.51,-0.90,-4126,-67,-845
2019-06-26 15:35:10.305591,130.60,-78.51,-0.89,-4121,-64,-836
2019-06-26 15:35:10.322585,130.63,-78.51,-0.90,-4118,-55,-846
2019-06-26 15:35:10.342589,130.62,-78.51,-0.89,-4130,-51,-855
2019-06-26 15:35:10.363594,130.62,-78.51,-0.89,-4135,-52,-827
2019-06-26 15:35:10.383599,130.61,-78.51,-0.89,-4129,-59,-823
2019-06-26 15:35:10.404603,130.63,-78.51,-0.89,-4127,-69,-856
2019-06-26 15:35:10.424608,130.62,-78.51,-0.89,-4127,-75,-850
2019-06-26 15:35:10.444612,130.62,-78.51,-0.89,-4120,-73,-833
2019-06-26 15:35:10.464635,130.62,-78.51,-0.89,-4120,-68,-839
2019-06-26 15:35:10.481638,130.62,-78.50,-0.89,-4123,-73,-839
2019-06-26 15:35:10.502643,130.62,-78.50,-0.89,-4121,-68,-829
2019-06-26 15:35:10.523648,130.62,-78.51,-0.89,-4119,-70,-814
2019-06-26 15:35:10.543636,130.62,-78.51,-0.89,-4124,-71,-825
2019-06-26 15:35:10.563638,130.61,-78.51,-0.90,-4128,-75,-838
2019-06-26 15:35:10.584643,130.61,-78.51,-0.90,-4122,-73,-824
2019-06-26 15:35:10.604648,130.59,-78.51,-0.90,-4120,-69,-822
2019-06-26 15:35:10.624653,130.59,-78.51,-0.90,-4119,-72,-812
2019-06-26 15:35:10.644657,130.60,-78.51,-0.90,-4122,-70,-819
2019-06-26 15:35:10.662679,130.60,-78.51,-0.90,-4119,-76,-828
2019-06-26 15:35:10.682683,130.60,-78.51,-0.90,-4124,-69,-835
2019-06-26 15:35:10.703672,130.60,-78.51,-0.90,-4130,-65,-831
2019-06-26 15:35:10.723675,130.60,-78.51,-0.90,-4130,-67,-842
2019-06-26 15:35:10.743679,130.60,-78.51,-0.90,-4127,-64,-829
2019-06-26 15:35:10.763684,130.60,-78.51,-0.90,-4125,-64,-842
2019-06-26 15:35:10.784688,130.60,-78.51,-0.90,-4123,-55,-838
2019-06-26 15:35:10.804693,130.60,-78.51,-0.90,-4135,-53,-840
2019-06-26 15:35:10.825698,130.60,-78.51,-0.90,-4132,-63,-835
2019-06-26 15:35:10.842702,130.60,-78.51,-0.90,-4130,-70,-843
2019-06-26 15:35:10.862706,130.60,-78.51,-0.90,-4123,-65,-834
2019-06-26 15:35:10.883712,130.60,-78.51,-0.90,-4111,-68,-829
2019-06-26 15:35:10.903715,130.63,-78.51,-0.90,-4121,-66,-840
2019-06-26 15:35:10.923720,130.61,-78.51,-0.90,-4134,-69,-835
2019-06-26 15:35:10.944743,130.61,-78.51,-0.90,-4128,-66,-824
2019-06-26 15:35:10.964729,130.61,-78.51,-0.90,-4129,-68,-838
2019-06-26 15:35:10.984734,130.61,-78.51,-0.90,-4126,-59,-829
2019-06-26 15:35:11.002738,130.60,-78.51,-0.89,-4127,-63,-828
2019-06-26 15:35:11.022742,130.60,-78.51,-0.89,-4126,-69,-835
2019-06-26 15:35:11.043747,130.60,-78.51,-0.89,-4132,-71,-849
2019-06-26 15:35:11.063769,130.60,-78.51,-0.89,-4138,-64,-832
2019-06-26 15:35:11.083774,130.60,-78.51,-0.89,-4142,-65,-830
2019-06-26 15:35:11.103779,130.60,-78.51,-0.89,-4138,-64,-825
2019-06-26 15:35:11.124766,130.61,-78.51,-0.90,-4126,-58,-831
2019-06-26 15:35:11.144787,130.61,-78.51,-0.90,-4127,-68,-833
2019-06-26 15:35:11.165775,130.60,-78.51,-0.89,-4127,-69,-836
2019-06-26 15:35:11.182796,130.60,-78.51,-0.89,-4121,-69,-835
2019-06-26 15:35:11.202801,130.62,-78.51,-0.89,-4128,-60,-836
2019-06-26 15:35:11.223806,130.62,-78.51,-0.89,-4128,-63,-843
2019-06-26 15:35:11.243810,130.62,-78.51,-0.89,-4125,-58,-837
2019-06-26 15:35:11.263799,130.61,-78.51,-0.89,-4118,-55,-827
2019-06-26 15:35:11.283801,130.61,-78.51,-0.89,-4126,-62,-829
2019-06-26 15:35:11.304807,130.63,-78.51,-0.89,-4127,-67,-844
2019-06-26 15:35:11.324811,130.63,-78.51,-0.89,-4132,-72,-835
2019-06-26 15:35:11.345815,130.63,-78.51,-0.89,-4132,-75,-827
2019-06-26 15:35:11.362819,130.63,-78.51,-0.89,-4139,-64,-834
2019-06-26 15:35:11.382823,130.61,-78.51,-0.89,-4140,-66,-818
2019-06-26 15:35:11.403828,130.63,-78.51,-0.89,-4135,-62,-836
2019-06-26 15:35:11.423833,130.63,-78.51,-0.89,-4130,-56,-832
2019-06-26 15:35:11.443855,130.61,-78.51,-0.89,-4136,-55,-841
2019-06-26 15:35:11.464843,130.61,-78.51,-0.89,-4137,-61,-838
2019-06-26 15:35:11.484847,130.64,-78.51,-0.88,-4135,-58,-849
2019-06-26 15:35:11.505855,130.64,-78.51,-0.88,-4133,-64,-839
2019-06-26 15:35:11.522855,130.64,-78.51,-0.88,-4134,-63,-840
2019-06-26 15:35:11.543860,130.62,-78.51,-0.88,-4133,-62,-816
2019-06-26 15:35:11.563864,130.62,-78.51,-0.88,-4132,-59,-832
2019-06-26 15:35:11.584869,130.60,-78.51,-0.88,-4135,-64,-830
2019-06-26 15:35:11.604873,130.60,-78.51,-0.88,-4134,-64,-827
2019-06-26 15:35:11.623880,130.62,-78.52,-0.88,-4134,-65,-826
2019-06-26 15:35:11.644883,130.62,-78.52,-0.88,-4129,-72,-828
2019-06-26 15:35:11.664887,130.59,-78.52,-0.88,-4135,-73,-826
2019-06-26 15:35:11.685891,130.59,-78.52,-0.88,-4134,-68,-838
2019-06-26 15:35:11.702897,130.59,-78.52,-0.88,-4142,-78,-844
2019-06-26 15:35:11.722900,130.61,-78.52,-0.89,-4133,-70,-844
2019-06-26 15:35:11.742904,130.61,-78.51,-0.89,-4137,-68,-841
2019-06-26 15:35:11.763909,130.59,-78.52,-0.88,-4133,-56,-831
2019-06-26 15:35:11.783932,130.58,-78.52,-0.88,-4142,-62,-837
2019-06-26 15:35:11.795203,130.58,-78.52,-0.88,-4148,-61,-845
2019-06-26 15:35:11.810849,130.59,-78.51,-0.88,-4140,-71,-849
2019-06-26 15:35:11.842097,130.59,-78.51,-0.88,-4142,-68,-851
2019-06-26 15:35:11.857723,130.59,-78.51,-0.88,-4141,-68,-864
2019-06-26 15:35:11.873354,130.59,-78.51,-0.88,-4132,-64,-836
2019-06-26 15:35:11.888975,130.59,-78.52,-0.88,-4129,-66,-835
2019-06-26 15:35:11.920227,130.59,-78.51,-0.88,-4136,-66,-836
2019-06-26 15:35:11.935853,130.59,-78.52,-0.88,-4140,-59,-843
2019-06-26 15:35:11.951483,130.59,-78.51,-0.88,-4136,-59,-849
2019-06-26 15:35:11.984583,130.59,-78.51,-0.88,-4143,-59,-845
2019-06-26 15:35:11.999634,130.60,-78.51,-0.88,-4135,-68,-833
2019-06-26 15:35:12.015258,130.60,-78.51,-0.88,-4134,-62,-835
2019-06-26 15:35:12.030899,130.60,-78.51,-0.88,-4131,-66,-836
2019-06-26 15:35:12.062155,130.59,-78.51,-0.88,-4136,-65,-838
2019-06-26 15:35:12.077781,130.59,-78.51,-0.88,-4124,-63,-832
2019-06-26 15:35:12.093406,130.59,-78.51,-0.88,-4121,-55,-831
2019-06-26 15:35:12.124642,130.59,-78.51,-0.88,-4125,-58,-837
2019-06-26 15:35:12.140285,130.60,-78.51,-0.88,-4134,-65,-836
2019-06-26 15:35:12.155911,130.60,-78.51,-0.88,-4128,-69,-826
2019-06-26 15:35:12.171537,130.59,-78.51,-0.88,-4130,-71,-833
2019-06-26 15:35:12.202789,130.59,-78.51,-0.88,-4141,-62,-833
2019-06-26 15:35:12.218415,130.59,-78.51,-0.88,-4126,-68,-834
2019-06-26 15:35:12.234188,130.59,-78.51,-0.88,-4125,-59,-845
2019-06-26 15:35:12.249814,130.60,-78.51,-0.88,-4122,-57,-825
2019-06-26 15:35:12.280902,130.60,-78.52,-0.88,-4127,-66,-817
2019-06-26 15:35:12.296690,130.60,-78.52,-0.88,-4121,-67,-838
2019-06-26 15:35:12.312323,130.60,-78.51,-0.88,-4119,-58,-846
2019-06-26 15:35:12.343423,130.60,-78.51,-0.88,-4122,-68,-844
2019-06-26 15:35:12.359201,130.60,-78.51,-0.88,-4122,-59,-845
2019-06-26 15:35:12.374822,130.60,-78.51,-0.88,-4128,-64,-840
2019-06-26 15:35:12.390445,130.60,-78.51,-0.88,-4126,-67,-837
2019-06-26 15:35:12.421698,130.60,-78.51,-0.88,-4121,-66,-839
2019-06-26 15:35:12.437344,130.60,-78.51,-0.88,-4124,-65,-843
2019-06-26 15:35:12.452956,130.60,-78.51,-0.88,-4119,-75,-842
2019-06-26 15:35:12.484058,130.62,-78.51,-0.88,-4118,-71,-852
2019-06-26 15:35:12.499835,130.62,-78.51,-0.88,-4128,-61,-834
2019-06-26 15:35:12.515461,130.60,-78.51,-0.88,-4132,-61,-824
2019-06-26 15:35:12.531081,130.60,-78.51,-0.88,-4125,-71,-841
2019-06-26 15:35:12.562338,130.64,-78.51,-0.88,-4120,-69,-837
2019-06-26 15:35:12.577958,130.62,-78.51,-0.88,-4126,-67,-840
2019-06-26 15:35:12.593618,130.60,-78.51,-0.88,-4130,-66,-835
2019-06-26 15:35:12.609215,130.61,-78.51,-0.87,-4131,-60,-831
2019-06-26 15:35:12.644594,130.60,-78.51,-0.88,-4127,-62,-827
2019-06-26 15:35:12.664595,130.60,-78.51,-0.88,-4119,-77,-824
2019-06-26 15:35:12.681441,130.60,-78.51,-0.88,-4105,-73,-833
2019-06-26 15:35:12.697063,130.62,-78.51,-0.88,-4117,-62,-845
2019-06-26 15:35:12.712693,130.60,-78.51,-0.88,-4121,-59,-839
2019-06-26 15:35:12.728323,130.60,-78.51,-0.88,-4132,-58,-835
2019-06-26 15:35:12.759571,130.60,-78.51,-0.88,-4132,-58,-822
2019-06-26 15:35:12.775197,130.62,-78.52,-0.88,-4126,-62,-826
2019-06-26 15:35:12.790823,130.60,-78.52,-0.88,-4129,-57,-834
2019-06-26 15:35:12.824719,130.60,-78.51,-0.88,-4126,-62,-848
2019-06-26 15:35:12.844742,130.60,-78.51,-0.88,-4116,-57,-846
2019-06-26 15:35:12.864746,130.60,-78.51,-0.88,-4119,-55,-847
2019-06-26 15:35:12.885751,130.61,-78.51,-0.87,-4118,-44,-846
2019-06-26 15:35:12.905755,130.61,-78.51,-0.87,-4122,-54,-832
2019-06-26 15:35:12.922742,130.61,-78.51,-0.87,-4122,-56,-838
2019-06-26 15:35:12.943748,130.61,-78.51,-0.87,-4128,-55,-832
2019-06-26 15:35:12.963752,130.61,-78.51,-0.87,-4129,-58,-841
2019-06-26 15:35:12.984755,130.61,-78.51,-0.87,-4128,-62,-847
2019-06-26 15:35:13.004759,130.64,-78.51,-0.87,-4126,-64,-845
2019-06-26 15:35:13.024767,130.64,-78.51,-0.87,-4131,-78,-841
2019-06-26 15:35:13.045770,130.64,-78.51,-0.87,-4122,-78,-828
2019-06-26 15:35:13.065774,130.64,-78.51,-0.87,-4134,-71,-832
2019-06-26 15:35:13.082778,130.64,-78.51,-0.87,-4125,-67,-841
2019-06-26 15:35:13.103805,130.64,-78.50,-0.87,-4123,-63,-850
2019-06-26 15:35:13.123787,130.64,-78.50,-0.87,-4124,-61,-832
2019-06-26 15:35:13.144793,130.64,-78.51,-0.87,-4123,-64,-825
2019-06-26 15:35:13.164796,130.64,-78.51,-0.87,-4128,-58,-832
2019-06-26 15:35:13.184801,130.63,-78.51,-0.87,-4127,-60,-832
2019-06-26 15:35:13.204805,130.63,-78.51,-0.87,-4128,-69,-832
2019-06-26 15:35:13.225809,130.63,-78.51,-0.87,-4117,-72,-841
2019-06-26 15:35:13.245832,130.63,-78.51,-0.87,-4119,-72,-832
2019-06-26 15:35:13.262836,130.63,-78.51,-0.87,-4121,-70,-832
2019-06-26 15:35:13.283841,130.61,-78.51,-0.87,-4128,-66,-826
2019-06-26 15:35:13.303827,130.61,-78.51,-0.87,-4129,-67,-839
2019-06-26 15:35:13.324833,130.63,-78.51,-0.87,-4135,-68,-847
2019-06-26 15:35:13.344836,130.61,-78.51,-0.87,-4136,-67,-832
2019-06-26 15:35:13.364840,130.61,-78.51,-0.87,-4129,-72,-842
2019-06-26 15:35:13.384845,130.63,-78.51,-0.87,-4135,-66,-852
2019-06-26 15:35:13.405868,130.62,-78.51,-0.87,-4123,-67,-840
2019-06-26 15:35:13.422872,130.63,-78.51,-0.87,-4130,-77,-836
2019-06-26 15:35:13.443877,130.63,-78.51,-0.87,-4127,-72,-837
2019-06-26 15:35:13.463863,130.62,-78.51,-0.87,-4130,-67,-850
2019-06-26 15:35:13.483868,130.62,-78.50,-0.87,-4130,-62,-846
2019-06-26 15:35:13.504873,130.62,-78.50,-0.87,-4131,-62,-844
2019-06-26 15:35:13.524878,130.62,-78.50,-0.87,-4138,-64,-840
2019-06-26 15:35:13.544900,130.62,-78.50,-0.87,-4142,-69,-841
2019-06-26 15:35:13.565886,130.62,-78.51,-0.87,-4138,-73,-840
2019-06-26 15:35:13.585890,130.62,-78.51,-0.87,-4134,-65,-845
2019-06-26 15:35:13.602912,130.62,-78.51,-0.87,-4138,-67,-829
2019-06-26 15:35:13.623899,130.62,-78.51,-0.87,-4137,-68,-831
2019-06-26 15:35:13.643903,130.61,-78.51,-0.87,-4131,-60,-822
2019-06-26 15:35:13.663908,130.59,-78.51,-0.87,-4140,-67,-813
2019-06-26 15:35:13.684913,130.59,-78.52,-0.87,-4135,-64,-821
2019-06-26 15:35:13.704936,130.59,-78.51,-0.87,-4127,-71,-834
2019-06-26 15:35:13.724922,130.59,-78.51,-0.87,-4142,-64,-841
2019-06-26 15:35:13.745927,130.61,-78.51,-0.87,-4141,-70,-846
2019-06-26 15:35:13.765931,130.61,-78.51,-0.87,-4137,-70,-850
2019-06-26 15:35:13.783958,130.61,-78.51,-0.87,-4132,-59,-830
2019-06-26 15:35:13.803940,130.61,-78.51,-0.87,-4135,-62,-834
2019-06-26 15:35:13.823944,130.59,-78.51,-0.87,-4133,-64,-820
2019-06-26 15:35:13.843949,130.61,-78.51,-0.87,-4136,-59,-837
2019-06-26 15:35:13.864953,130.61,-78.51,-0.87,-4135,-74,-846
2019-06-26 15:35:13.884958,130.61,-78.51,-0.87,-4128,-72,-850
2019-06-26 15:35:13.905963,130.61,-78.51,-0.87,-4130,-63,-849
2019-06-26 15:35:13.925969,130.61,-78.51,-0.87,-4132,-61,-831
2019-06-26 15:35:13.942973,130.57,-78.51,-0.87,-4138,-60,-827
2019-06-26 15:35:13.963976,130.57,-78.51,-0.87,-4136,-69,-828
2019-06-26 15:35:13.983981,130.57,-78.51,-0.87,-4138,-69,-837
2019-06-26 15:35:14.004003,130.58,-78.51,-0.88,-4141,-72,-839
2019-06-26 15:35:14.023989,130.57,-78.51,-0.87,-4135,-65,-834
2019-06-26 15:35:14.045996,130.57,-78.51,-0.87,-4143,-65,-841
2019-06-26 15:35:14.064998,130.57,-78.52,-0.87,-4146,-70,-844
2019-06-26 15:35:14.086005,130.56,-78.51,-0.87,-4136,-76,-846
2019-06-26 15:35:14.106008,130.56,-78.51,-0.87,-4145,-71,-843
2019-06-26 15:35:14.123012,130.56,-78.51,-0.87,-4139,-68,-829
2019-06-26 15:35:14.144017,130.56,-78.52,-0.87,-4140,-65,-834
2019-06-26 15:35:14.164035,130.58,-78.52,-0.88,-4142,-69,-822
2019-06-26 15:35:14.184039,130.55,-78.52,-0.88,-4132,-72,-825
2019-06-26 15:35:14.205044,130.55,-78.52,-0.88,-4137,-73,-833
2019-06-26 15:35:14.225049,130.58,-78.52,-0.88,-4137,-64,-853
2019-06-26 15:35:14.246055,130.58,-78.52,-0.88,-4135,-64,-849
2019-06-26 15:35:14.266058,130.56,-78.52,-0.87,-4133,-57,-842
2019-06-26 15:35:14.286062,130.56,-78.51,-0.87,-4129,-62,-840
2019-06-26 15:35:14.303065,130.56,-78.52,-0.87,-4136,-72,-851
2019-06-26 15:35:14.324071,130.56,-78.51,-0.87,-4130,-66,-843
2019-06-26 15:35:14.344076,130.59,-78.51,-0.87,-4126,-70,-847
2019-06-26 15:35:14.364080,130.59,-78.51,-0.87,-4131,-67,-850
2019-06-26 15:35:14.385085,130.59,-78.51,-0.87,-4125,-66,-834
2019-06-26 15:35:14.405090,130.59,-78.51,-0.88,-4131,-65,-835
2019-06-26 15:35:14.426094,130.57,-78.51,-0.88,-4133,-68,-829
2019-06-26 15:35:14.446100,130.57,-78.51,-0.88,-4132,-70,-839
2019-06-26 15:35:14.463103,130.57,-78.51,-0.88,-4126,-69,-854
2019-06-26 15:35:14.483106,130.59,-78.51,-0.88,-4135,-61,-844
2019-06-26 15:35:14.504111,130.59,-78.51,-0.88,-4137,-65,-837
2019-06-26 15:35:14.524115,130.59,-78.51,-0.88,-4133,-65,-852
2019-06-26 15:35:14.545120,130.59,-78.51,-0.88,-4129,-63,-835
2019-06-26 15:35:14.565125,130.59,-78.51,-0.88,-4128,-69,-843
2019-06-26 15:35:14.586129,130.59,-78.51,-0.88,-4126,-69,-836
2019-06-26 15:35:14.606134,130.59,-78.51,-0.88,-4129,-70,-838
2019-06-26 15:35:14.626139,130.59,-78.51,-0.88,-4135,-61,-827
2019-06-26 15:35:14.643142,130.55,-78.51,-0.88,-4133,-54,-830
2019-06-26 15:35:14.664147,130.58,-78.51,-0.88,-4125,-54,-822
2019-06-26 15:35:14.684152,130.55,-78.51,-0.88,-4128,-59,-828
2019-06-26 15:35:14.704156,130.55,-78.51,-0.88,-4125,-73,-824
2019-06-26 15:35:14.725164,130.55,-78.52,-0.88,-4118,-59,-831
2019-06-26 15:35:14.745164,130.55,-78.52,-0.88,-4122,-58,-834
2019-06-26 15:35:14.766170,130.55,-78.52,-0.88,-4120,-63,-850
2019-06-26 15:35:14.786176,130.58,-78.51,-0.88,-4125,-68,-839
2019-06-26 15:35:14.806179,130.55,-78.51,-0.88,-4124,-64,-823
2019-06-26 15:35:14.823182,130.55,-78.52,-0.88,-4127,-60,-826
2019-06-26 15:35:14.844188,130.55,-78.51,-0.88,-4123,-63,-839
2019-06-26 15:35:14.864192,130.55,-78.51,-0.88,-4127,-61,-845
2019-06-26 15:35:14.885197,130.56,-78.51,-0.87,-4123,-61,-843
2019-06-26 15:35:14.905202,130.56,-78.51,-0.87,-4124,-50,-844
2019-06-26 15:35:14.925206,130.55,-78.52,-0.87,-4129,-56,-819
2019-06-26 15:35:14.946212,130.55,-78.52,-0.87,-4135,-52,-816
2019-06-26 15:35:14.966215,130.55,-78.52,-0.87,-4130,-57,-822
2019-06-26 15:35:14.983220,130.55,-78.52,-0.87,-4129,-64,-828
2019-06-26 15:35:15.003224,130.55,-78.52,-0.87,-4125,-56,-840
2019-06-26 15:35:15.025229,130.55,-78.52,-0.87,-4123,-64,-832
2019-06-26 15:35:15.044234,130.55,-78.52,-0.87,-4130,-56,-832
2019-06-26 15:35:15.065238,130.53,-78.52,-0.87,-4124,-52,-825
2019-06-26 15:35:15.085242,130.53,-78.52,-0.87,-4131,-49,-833
2019-06-26 15:35:15.105246,130.53,-78.52,-0.87,-4128,-58,-832
2019-06-26 15:35:15.126251,130.52,-78.52,-0.87,-4121,-66,-826
2019-06-26 15:35:15.146256,130.53,-78.52,-0.87,-4125,-65,-831
2019-06-26 15:35:15.163261,130.55,-78.52,-0.87,-4128,-69,-842
2019-06-26 15:35:15.184264,130.53,-78.52,-0.88,-4131,-79,-833
2019-06-26 15:35:15.204268,130.53,-78.52,-0.88,-4125,-75,-827
2019-06-26 15:35:15.225274,130.53,-78.52,-0.88,-4124,-70,-831
2019-06-26 15:35:15.245278,130.53,-78.52,-0.88,-4128,-65,-823
2019-06-26 15:35:15.265282,130.53,-78.53,-0.88,-4119,-68,-815
2019-06-26 15:35:15.285287,130.53,-78.53,-0.88,-4128,-61,-841
2019-06-26 15:35:15.306292,130.53,-78.53,-0.88,-4130,-72,-820
2019-06-26 15:35:15.326296,130.53,-78.53,-0.88,-4127,-82,-829
2019-06-26 15:35:15.343300,130.53,-78.53,-0.88,-4136,-81,-843
2019-06-26 15:35:15.364305,130.52,-78.53,-0.88,-4134,-73,-839
2019-06-26 15:35:15.384311,130.52,-78.52,-0.88,-4125,-70,-846
2019-06-26 15:35:15.405317,130.53,-78.52,-0.88,-4121,-69,-843
2019-06-26 15:35:15.425320,130.55,-78.52,-0.88,-4122,-68,-846
2019-06-26 15:35:15.445323,130.53,-78.52,-0.88,-4129,-63,-838
2019-06-26 15:35:15.466328,130.53,-78.52,-0.88,-4123,-61,-836
2019-06-26 15:35:15.486333,130.53,-78.52,-0.88,-4131,-61,-848
2019-06-26 15:35:15.503336,130.53,-78.52,-0.88,-4131,-63,-835
2019-06-26 15:35:15.524341,130.55,-78.52,-0.88,-4136,-63,-847
2019-06-26 15:35:15.544345,130.55,-78.52,-0.88,-4132,-66,-845
2019-06-26 15:35:15.564350,130.54,-78.52,-0.87,-4128,-59,-842
2019-06-26 15:35:15.585355,130.54,-78.52,-0.87,-4123,-55,-845
2019-06-26 15:35:15.605359,130.54,-78.52,-0.87,-4125,-56,-846
2019-06-26 15:35:15.625364,130.54,-78.52,-0.87,-4134,-57,-847
2019-06-26 15:35:15.646369,130.54,-78.52,-0.87,-4133,-61,-839
2019-06-26 15:35:15.666373,130.54,-78.52,-0.87,-4126,-65,-835
2019-06-26 15:35:15.683377,130.54,-78.52,-0.87,-4128,-65,-826
2019-06-26 15:35:15.704383,130.54,-78.52,-0.87,-4131,-69,-851
2019-06-26 15:35:15.724386,130.54,-78.52,-0.87,-4135,-69,-851
2019-06-26 15:35:15.745391,130.54,-78.52,-0.87,-4138,-67,-843
2019-06-26 15:35:15.765395,130.56,-78.51,-0.88,-4129,-68,-840
2019-06-26 15:35:15.785399,130.54,-78.52,-0.87,-4138,-68,-837
2019-06-26 15:35:15.806404,130.56,-78.51,-0.88,-4138,-65,-836
2019-06-26 15:35:15.826409,130.56,-78.51,-0.88,-4143,-65,-851
2019-06-26 15:35:15.846414,130.56,-78.51,-0.88,-4140,-69,-845
2019-06-26 15:35:15.864418,130.55,-78.51,-0.87,-4140,-68,-846
2019-06-26 15:35:15.884422,130.55,-78.51,-0.87,-4139,-70,-841
2019-06-26 15:35:15.904426,130.56,-78.51,-0.87,-4141,-69,-843
2019-06-26 15:35:15.924431,130.55,-78.51,-0.87,-4133,-69,-835
2019-06-26 15:35:15.945436,130.53,-78.52,-0.87,-4132,-68,-815
2019-06-26 15:35:15.965440,130.54,-78.52,-0.87,-4133,-63,-823
2019-06-26 15:35:15.986446,130.54,-78.52,-0.87,-4129,-67,-821
2019-06-26 15:35:16.006449,130.54,-78.52,-0.87,-4130,-71,-842
2019-06-26 15:35:16.023455,130.54,-78.52,-0.87,-4137,-67,-849
2019-06-26 15:35:16.044458,130.56,-78.51,-0.88,-4133,-66,-860
2019-06-26 15:35:16.064462,130.56,-78.51,-0.88,-4140,-65,-833
2019-06-26 15:35:16.085468,130.53,-78.52,-0.88,-4128,-61,-829
2019-06-26 15:35:16.105473,130.55,-78.51,-0.88,-4130,-57,-840
2019-06-26 15:35:16.126477,130.53,-78.52,-0.88,-4135,-60,-833
2019-06-26 15:35:16.146483,130.55,-78.51,-0.88,-4137,-62,-847
2019-06-26 15:35:16.166487,130.55,-78.51,-0.88,-4134,-64,-835
2019-06-26 15:35:16.186490,130.55,-78.51,-0.88,-4142,-72,-829
2019-06-26 15:35:16.203494,130.55,-78.51,-0.88,-4139,-69,-830
2019-06-26 15:35:16.224500,130.56,-78.51,-0.89,-4146,-66,-833
2019-06-26 15:35:16.244503,130.55,-78.51,-0.88,-4145,-62,-831
2019-06-26 15:35:16.264508,130.53,-78.52,-0.88,-4145,-57,-821
2019-06-26 15:35:16.285513,130.53,-78.52,-0.88,-4136,-52,-831
2019-06-26 15:35:16.305518,130.53,-78.52,-0.88,-4135,-71,-839
2019-06-26 15:35:16.326522,130.53,-78.52,-0.88,-4128,-70,-835
2019-06-26 15:35:16.346526,130.53,-78.52,-0.88,-4132,-58,-838
2019-06-26 15:35:16.366531,130.53,-78.52,-0.88,-4131,-66,-827
2019-06-26 15:35:16.384535,130.53,-78.52,-0.88,-4131,-62,-827
2019-06-26 15:35:16.404540,130.53,-78.52,-0.88,-4129,-68,-841
2019-06-26 15:35:16.424544,130.53,-78.52,-0.88,-4131,-64,-833
2019-06-26 15:35:16.445567,130.53,-78.52,-0.88,-4140,-60,-817
2019-06-26 15:35:16.465553,130.53,-78.52,-0.88,-4142,-58,-827
2019-06-26 15:35:16.485557,130.53,-78.52,-0.88,-4133,-56,-832
2019-06-26 15:35:16.506562,130.53,-78.52,-0.88,-4134,-58,-842
2019-06-26 15:35:16.526566,130.53,-78.52,-0.88,-4124,-56,-844
2019-06-26 15:35:16.543570,130.53,-78.52,-0.88,-4122,-62,-846
2019-06-26 15:35:16.564576,130.53,-78.52,-0.88,-4119,-61,-845
2019-06-26 15:35:16.584580,130.55,-78.51,-0.87,-4116,-59,-846
2019-06-26 15:35:16.604590,130.55,-78.51,-0.87,-4124,-56,-829
2019-06-26 15:35:16.625589,130.53,-78.52,-0.87,-4126,-56,-832
2019-06-26 15:35:16.645593,130.55,-78.51,-0.87,-4124,-55,-841
2019-06-26 15:35:16.666599,130.53,-78.52,-0.87,-4117,-66,-829
2019-06-26 15:35:16.686602,130.55,-78.51,-0.87,-4123,-65,-839
2019-06-26 15:35:16.706607,130.55,-78.51,-0.87,-4124,-72,-838
2019-06-26 15:35:16.723611,130.55,-78.51,-0.87,-4129,-67,-839
2019-06-26 15:35:16.744616,130.55,-78.51,-0.87,-4131,-63,-852
2019-06-26 15:35:16.764620,130.55,-78.51,-0.87,-4123,-65,-835
2019-06-26 15:35:16.785625,130.55,-78.51,-0.87,-4120,-53,-844
2019-06-26 15:35:16.805080,130.55,-78.51,-0.87,-4123,-46,-843
2019-06-26 15:35:16.826087,130.55,-78.51,-0.87,-4117,-52,-827
2019-06-26 15:35:16.846089,130.53,-78.52,-0.87,-4121,-51,-826
2019-06-26 15:35:16.867095,130.53,-78.52,-0.87,-4122,-61,-829
2019-06-26 15:35:16.887098,130.55,-78.51,-0.87,-4128,-76,-834
2019-06-26 15:35:16.904103,130.55,-78.51,-0.87,-4130,-71,-837
2019-06-26 15:35:16.924108,130.55,-78.51,-0.87,-4126,-65,-849
2019-06-26 15:35:16.945112,130.55,-78.51,-0.87,-4123,-64,-827
2019-06-26 15:35:16.965117,130.53,-78.52,-0.87,-4125,-62,-826
2019-06-26 15:35:16.986121,130.55,-78.51,-0.87,-4124,-72,-824
2019-06-26 15:35:17.006125,130.55,-78.51,-0.87,-4130,-61,-842
2019-06-26 15:35:17.026130,130.53,-78.51,-0.87,-4131,-61,-852
2019-06-26 15:35:17.047135,130.53,-78.51,-0.87,-4131,-58,-850
2019-06-26 15:35:17.064140,130.53,-78.51,-0.87,-4127,-66,-843
2019-06-26 15:35:17.084145,130.53,-78.51,-0.87,-4129,-68,-828
2019-06-26 15:35:17.104148,130.53,-78.51,-0.87,-4129,-79,-835
2019-06-26 15:35:17.125152,130.53,-78.51,-0.87,-4131,-75,-840
2019-06-26 15:35:17.145157,130.56,-78.50,-0.87,-4127,-70,-854
2019-06-26 15:35:17.166162,130.56,-78.50,-0.87,-4121,-67,-841
2019-06-26 15:35:17.186166,130.56,-78.50,-0.87,-4126,-57,-839
2019-06-26 15:35:17.207171,130.56,-78.50,-0.87,-4127,-58,-840
2019-06-26 15:35:17.227176,130.55,-78.50,-0.86,-4124,-54,-832
2019-06-26 15:35:17.244179,130.55,-78.50,-0.86,-4133,-58,-843
2019-06-26 15:35:17.264183,130.54,-78.50,-0.86,-4130,-66,-825
2019-06-26 15:35:17.285189,130.54,-78.50,-0.86,-4128,-75,-826
2019-06-26 15:35:17.305193,130.54,-78.50,-0.86,-4126,-72,-839
2019-06-26 15:35:17.326198,130.54,-78.50,-0.86,-4125,-76,-820
2019-06-26 15:35:17.346202,130.56,-78.50,-0.87,-4121,-64,-828
2019-06-26 15:35:17.366207,130.55,-78.50,-0.86,-4135,-60,-831
2019-06-26 15:35:17.386211,130.53,-78.51,-0.86,-4131,-54,-823
2019-06-26 15:35:17.403215,130.53,-78.51,-0.86,-4134,-52,-830
2019-06-26 15:35:17.424220,130.53,-78.51,-0.86,-4127,-49,-829
2019-06-26 15:35:17.444224,130.53,-78.51,-0.86,-4132,-55,-851
2019-06-26 15:35:17.465229,130.53,-78.51,-0.86,-4122,-60,-837
2019-06-26 15:35:17.485233,130.53,-78.51,-0.86,-4131,-68,-827
2019-06-26 15:35:17.506238,130.53,-78.51,-0.86,-4131,-67,-826
2019-06-26 15:35:17.526244,130.53,-78.51,-0.86,-4126,-67,-829
2019-06-26 15:35:17.546247,130.53,-78.51,-0.86,-4129,-72,-838
2019-06-26 15:35:17.567251,130.53,-78.51,-0.86,-4119,-72,-837
2019-06-26 15:35:17.584256,130.53,-78.51,-0.86,-4129,-66,-824
2019-06-26 15:35:17.604262,130.52,-78.51,-0.86,-4129,-66,-828
2019-06-26 15:35:17.625266,130.50,-78.52,-0.86,-4134,-61,-829
2019-06-26 15:35:17.645270,130.51,-78.52,-0.86,-4131,-63,-828
2019-06-26 15:35:17.666274,130.49,-78.52,-0.85,-4129,-63,-825
2019-06-26 15:35:17.686279,130.51,-78.52,-0.86,-4126,-72,-847
2019-06-26 15:35:17.706283,130.50,-78.52,-0.86,-4131,-67,-834
2019-06-26 15:35:17.726287,130.50,-78.52,-0.86,-4132,-70,-826
2019-06-26 15:35:17.747293,130.50,-78.52,-0.86,-4134,-64,-830
2019-06-26 15:35:17.764297,130.51,-78.52,-0.86,-4133,-71,-842
2019-06-26 15:35:17.784301,130.51,-78.52,-0.86,-4126,-65,-837
2019-06-26 15:35:17.805306,130.53,-78.51,-0.86,-4138,-56,-850
2019-06-26 15:35:17.825311,130.51,-78.51,-0.85,-4127,-57,-852
2019-06-26 15:35:17.846315,130.51,-78.51,-0.85,-4125,-53,-847
2019-06-26 15:35:17.866319,130.51,-78.51,-0.85,-4128,-57,-836
2019-06-26 15:35:17.886323,130.51,-78.51,-0.85,-4130,-62,-824
2019-06-26 15:35:17.907329,130.51,-78.51,-0.85,-4128,-69,-839
2019-06-26 15:35:17.924334,130.51,-78.51,-0.85,-4132,-73,-856
2019-06-26 15:35:17.944339,130.51,-78.51,-0.85,-4146,-76,-838
2019-06-26 15:35:17.965343,130.51,-78.51,-0.85,-4146,-72,-841
2019-06-26 15:35:17.985346,130.50,-78.51,-0.86,-4143,-73,-834
2019-06-26 15:35:18.005351,130.54,-78.50,-0.85,-4140,-69,-831
2019-06-26 15:35:18.025355,130.54,-78.50,-0.85,-4138,-72,-842
2019-06-26 15:35:18.046360,130.54,-78.50,-0.85,-4133,-62,-850
2019-06-26 15:35:18.067365,130.54,-78.50,-0.85,-4141,-62,-834
2019-06-26 15:35:18.087369,130.53,-78.50,-0.86,-4138,-70,-844
2019-06-26 15:35:18.104373,130.52,-78.50,-0.85,-4140,-61,-840
2019-06-26 15:35:18.124377,130.52,-78.50,-0.85,-4138,-64,-829
2019-06-26 15:35:18.145384,130.49,-78.51,-0.85,-4139,-64,-835
2019-06-26 15:35:18.165388,130.52,-78.50,-0.85,-4139,-55,-834
2019-06-26 15:35:18.186392,130.52,-78.50,-0.85,-4141,-61,-841
2019-06-26 15:35:18.206397,130.52,-78.50,-0.85,-4137,-64,-830
2019-06-26 15:35:18.226401,130.49,-78.51,-0.85,-4143,-68,-819
2019-06-26 15:35:18.247405,130.49,-78.51,-0.85,-4140,-78,-826
2019-06-26 15:35:18.267409,130.50,-78.51,-0.86,-4138,-80,-843
2019-06-26 15:35:18.284413,130.53,-78.50,-0.86,-4134,-76,-848
2019-06-26 15:35:18.305417,130.53,-78.50,-0.86,-4136,-59,-845
2019-06-26 15:35:18.325423,130.53,-78.50,-0.86,-4133,-60,-848
2019-06-26 15:35:18.345427,130.53,-78.50,-0.86,-4132,-51,-826
2019-06-26 15:35:18.365433,130.50,-78.51,-0.86,-4135,-56,-814
2019-06-26 15:35:18.386436,130.50,-78.51,-0.86,-4143,-60,-832
2019-06-26 15:35:18.406441,130.50,-78.51,-0.86,-4134,-59,-830
2019-06-26 15:35:18.427446,130.53,-78.50,-0.86,-4128,-71,-846
2019-06-26 15:35:18.444450,130.53,-78.50,-0.86,-4132,-66,-853
2019-06-26 15:35:18.464454,130.53,-78.50,-0.86,-4136,-73,-836
2019-06-26 15:35:18.485459,130.53,-78.50,-0.86,-4124,-69,-847
2019-06-26 15:35:18.505463,130.53,-78.50,-0.86,-4130,-60,-830
2019-06-26 15:35:18.525468,130.53,-78.50,-0.86,-4123,-63,-831
2019-06-26 15:35:18.546473,130.53,-78.50,-0.86,-4121,-60,-832
2019-06-26 15:35:18.566477,130.51,-78.50,-0.85,-4132,-56,-830
2019-06-26 15:35:18.587482,130.51,-78.50,-0.85,-4124,-62,-840
2019-06-26 15:35:18.607486,130.51,-78.50,-0.85,-4127,-71,-826
2019-06-26 15:35:18.624492,130.51,-78.50,-0.85,-4129,-70,-818
2019-06-26 15:35:18.644494,130.51,-78.50,-0.85,-4123,-68,-829
2019-06-26 15:35:18.665500,130.51,-78.50,-0.85,-4128,-63,-834
2019-06-26 15:35:18.685504,130.52,-78.50,-0.85,-4122,-60,-846
2019-06-26 15:35:18.705508,130.52,-78.50,-0.85,-4124,-66,-840
2019-06-26 15:35:18.726513,130.52,-78.50,-0.85,-4119,-59,-841
2019-06-26 15:35:18.746517,130.51,-78.50,-0.84,-4123,-57,-837
2019-06-26 15:35:18.767523,130.51,-78.50,-0.84,-4120,-53,-823
2019-06-26 15:35:18.787527,130.51,-78.50,-0.84,-4120,-55,-827
2019-06-26 15:35:18.804532,130.51,-78.50,-0.84,-4128,-59,-829
2019-06-26 15:35:18.825534,130.51,-78.50,-0.84,-4130,-72,-842
2019-06-26 15:35:18.845540,130.51,-78.50,-0.84,-4127,-77,-835
2019-06-26 15:35:18.865545,130.51,-78.50,-0.84,-4114,-81,-835
2019-06-26 15:35:18.886549,130.52,-78.49,-0.85,-4120,-74,-847
2019-06-26 15:35:18.906555,130.52,-78.49,-0.85,-4114,-61,-845
2019-06-26 15:35:18.926558,130.52,-78.49,-0.85,-4123,-62,-844
2019-06-26 15:35:18.946563,130.50,-78.50,-0.85,-4129,-60,-833
2019-06-26 15:35:18.964567,130.50,-78.50,-0.85,-4127,-59,-833
2019-06-26 15:35:18.984571,130.50,-78.50,-0.85,-4126,-66,-818
2019-06-26 15:35:19.004576,130.50,-78.50,-0.85,-4121,-70,-828
2019-06-26 15:35:19.025580,130.50,-78.50,-0.85,-4123,-66,-838
2019-06-26 15:35:19.045585,130.50,-78.50,-0.85,-4120,-63,-848
2019-06-26 15:35:19.066589,130.51,-78.50,-0.86,-4119,-65,-853
2019-06-26 15:35:19.086594,130.50,-78.50,-0.85,-4112,-61,-833
2019-06-26 15:35:19.106599,130.50,-78.50,-0.85,-4114,-49,-827
2019-06-26 15:35:19.127603,130.49,-78.50,-0.85,-4112,-64,-823
2019-06-26 15:35:19.144607,130.49,-78.50,-0.85,-4119,-68,-829
2019-06-26 15:35:19.165612,130.49,-78.50,-0.85,-4115,-66,-837
2019-06-26 15:35:19.185616,130.49,-78.50,-0.85,-4120,-69,-839
2019-06-26 15:35:19.205621,130.49,-78.50,-0.85,-4111,-64,-846
2019-06-26 15:35:19.226626,130.49,-78.50,-0.85,-4113,-58,-834
2019-06-26 15:35:19.246630,130.49,-78.50,-0.85,-4127,-65,-818
2019-06-26 15:35:19.266635,130.49,-78.50,-0.85,-4126,-60,-835
2019-06-26 15:35:19.286639,130.49,-78.50,-0.85,-4125,-56,-837
2019-06-26 15:35:19.307644,130.49,-78.50,-0.85,-4117,-64,-824
2019-06-26 15:35:19.324648,130.49,-78.50,-0.85,-4123,-64,-831
2019-06-26 15:35:19.344652,130.49,-78.50,-0.85,-4123,-67,-827
2019-06-26 15:35:19.365658,130.47,-78.51,-0.85,-4120,-61,-825
2019-06-26 15:35:19.385661,130.47,-78.51,-0.85,-4121,-67,-830
2019-06-26 15:35:19.406666,130.49,-78.50,-0.85,-4120,-63,-837
2019-06-26 15:35:19.426671,130.49,-78.50,-0.85,-4118,-63,-846
2019-06-26 15:35:19.446675,130.49,-78.50,-0.85,-4126,-63,-844
2019-06-26 15:35:19.466679,130.49,-78.50,-0.85,-4127,-73,-844
2019-06-26 15:35:19.484684,130.49,-78.50,-0.85,-4129,-71,-842
2019-06-26 15:35:19.504688,130.49,-78.50,-0.85,-4126,-68,-830
2019-06-26 15:35:19.525693,130.47,-78.50,-0.85,-4124,-60,-825
2019-06-26 15:35:19.545698,130.47,-78.50,-0.85,-4123,-59,-843
2019-06-26 15:35:19.565703,130.47,-78.50,-0.85,-4122,-66,-843
2019-06-26 15:35:19.586707,130.47,-78.50,-0.85,-4116,-63,-846
2019-06-26 15:35:19.606714,130.47,-78.50,-0.85,-4116,-61,-834
2019-06-26 15:35:19.626719,130.47,-78.50,-0.85,-4117,-62,-831
2019-06-26 15:35:19.647728,130.47,-78.50,-0.85,-4128,-64,-831
2019-06-26 15:35:19.664731,130.48,-78.51,-0.85,-4129,-64,-827
2019-06-26 15:35:19.684735,130.45,-78.51,-0.85,-4130,-61,-831
2019-06-26 15:35:19.705740,130.45,-78.51,-0.85,-4127,-73,-833
2019-06-26 15:35:19.725744,130.44,-78.51,-0.85,-4130,-71,-833
2019-06-26 15:35:19.746749,130.45,-78.51,-0.85,-4126,-75,-834
2019-06-26 15:35:19.766753,130.44,-78.51,-0.85,-4123,-70,-836
2019-06-26 15:35:19.786758,130.44,-78.51,-0.85,-4135,-70,-830
2019-06-26 15:35:19.806762,130.44,-78.51,-0.85,-4130,-67,-838
2019-06-26 15:35:19.827767,130.44,-78.51,-0.85,-4120,-58,-835
2019-06-26 15:35:19.844771,130.44,-78.51,-0.85,-4127,-68,-836
2019-06-26 15:35:19.865776,130.44,-78.51,-0.85,-4138,-63,-822
2019-06-26 15:35:19.885780,130.42,-78.52,-0.85,-4142,-68,-826
2019-06-26 15:35:19.905784,130.44,-78.51,-0.85,-4131,-57,-845
2019-06-26 15:35:19.925789,130.43,-78.51,-0.86,-4139,-64,-834
2019-06-26 15:35:19.946794,130.43,-78.51,-0.85,-4128,-63,-839
2019-06-26 15:35:19.966799,130.44,-78.51,-0.85,-4123,-65,-832
2019-06-26 15:35:19.987803,130.44,-78.51,-0.85,-4128,-61,-816
2019-06-26 15:35:20.004807,130.41,-78.52,-0.85,-4124,-62,-812
2019-06-26 15:35:20.024813,130.41,-78.52,-0.85,-4129,-58,-833
2019-06-26 15:35:20.045816,130.41,-78.52,-0.85,-4128,-52,-831
2019-06-26 15:35:20.065821,130.41,-78.52,-0.85,-4125,-62,-845
2019-06-26 15:35:20.086826,130.43,-78.51,-0.85,-4130,-74,-839
2019-06-26 15:35:20.106830,130.43,-78.52,-0.85,-4130,-69,-835
2019-06-26 15:35:20.126834,130.40,-78.52,-0.85,-4135,-66,-827
2019-06-26 15:35:20.146839,130.40,-78.52,-0.85,-4132,-67,-836
2019-06-26 15:35:20.167844,130.42,-78.51,-0.86,-4138,-64,-844
2019-06-26 15:35:20.184848,130.42,-78.51,-0.86,-4134,-69,-847
2019-06-26 15:35:20.204852,130.42,-78.51,-0.86,-4135,-61,-848
2019-06-26 15:35:20.225857,130.42,-78.51,-0.86,-4132,-68,-844
2019-06-26 15:35:20.245863,130.41,-78.51,-0.85,-4134,-62,-833
2019-06-26 15:35:20.265873,130.41,-78.51,-0.85,-4134,-61,-834
2019-06-26 15:35:20.286881,130.41,-78.51,-0.85,-4137,-63,-840
2019-06-26 15:35:20.306885,130.42,-78.52,-0.85,-4141,-63,-842
2019-06-26 15:35:20.327890,130.41,-78.51,-0.85,-4133,-63,-831
2019-06-26 15:35:20.344894,130.41,-78.51,-0.85,-4139,-69,-843
2019-06-26 15:35:20.364899,130.41,-78.52,-0.85,-4145,-66,-823
2019-06-26 15:35:20.385905,130.42,-78.52,-0.85,-4144,-70,-824
2019-06-26 15:35:20.405907,130.42,-78.51,-0.86,-4140,-64,-839
2019-06-26 15:35:20.425911,130.42,-78.51,-0.86,-4134,-60,-840
2019-06-26 15:35:20.446918,130.42,-78.51,-0.86,-4138,-65,-844
2019-06-26 15:35:20.466921,130.42,-78.51,-0.86,-4135,-70,-817
2019-06-26 15:35:20.486926,130.42,-78.52,-0.85,-4136,-77,-820
2019-06-26 15:35:20.507931,130.40,-78.52,-0.85,-4135,-70,-815
2019-06-26 15:35:20.524936,130.40,-78.52,-0.85,-4134,-61,-820
2019-06-26 15:35:20.544939,130.38,-78.52,-0.85,-4146,-59,-836
2019-06-26 15:35:20.565945,130.38,-78.52,-0.85,-4139,-59,-841
2019-06-26 15:35:20.585948,130.38,-78.52,-0.85,-4142,-56,-854
2019-06-26 15:35:20.605953,130.38,-78.52,-0.85,-4138,-60,-828
2019-06-26 15:35:20.626958,130.38,-78.52,-0.85,-4137,-54,-838
2019-06-26 15:35:20.646962,130.38,-78.52,-0.85,-4126,-69,-833
2019-06-26 15:35:20.666967,130.38,-78.52,-0.85,-4127,-72,-836
2019-06-26 15:35:20.687971,130.38,-78.52,-0.85,-4131,-74,-828
2019-06-26 15:35:20.704975,130.38,-78.52,-0.85,-4132,-69,-832
2019-06-26 15:35:20.725981,130.38,-78.52,-0.85,-4132,-77,-842
2019-06-26 15:35:20.745985,130.38,-78.52,-0.85,-4131,-79,-829
2019-06-26 15:35:20.765989,130.38,-78.52,-0.85,-4137,-81,-840
2019-06-26 15:35:20.785994,130.38,-78.52,-0.85,-4132,-74,-831
2019-06-26 15:35:20.806998,130.37,-78.52,-0.85,-4125,-62,-831
2019-06-26 15:35:20.827003,130.37,-78.52,-0.85,-4123,-54,-829
2019-06-26 15:35:20.848009,130.37,-78.53,-0.85,-4127,-60,-833
2019-06-26 15:35:20.865012,130.37,-78.52,-0.85,-4122,-52,-839
2019-06-26 15:35:20.885015,130.37,-78.52,-0.85,-4119,-59,-841
2019-06-26 15:35:20.905020,130.37,-78.52,-0.85,-4120,-63,-836
2019-06-26 15:35:20.926025,130.37,-78.52,-0.85,-4129,-64,-832
2019-06-26 15:35:20.946029,130.37,-78.52,-0.85,-4122,-61,-839
2019-06-26 15:35:20.967034,130.35,-78.53,-0.84,-4134,-58,-827
2019-06-26 15:35:20.987038,130.35,-78.53,-0.84,-4126,-63,-830
2019-06-26 15:35:21.007043,130.35,-78.53,-0.84,-4126,-63,-835
2019-06-26 15:35:21.028048,130.35,-78.53,-0.84,-4122,-60,-820
2019-06-26 15:35:21.045053,130.35,-78.53,-0.84,-4125,-62,-823
2019-06-26 15:35:21.066060,130.35,-78.53,-0.84,-4129,-60,-833
2019-06-26 15:35:21.086061,130.34,-78.53,-0.85,-4134,-72,-821
2019-06-26 15:35:21.106066,130.34,-78.53,-0.85,-4125,-61,-817
2019-06-26 15:35:21.126071,130.34,-78.53,-0.85,-4129,-63,-825
2019-06-26 15:35:21.147075,130.34,-78.53,-0.85,-4123,-66,-834
2019-06-26 15:35:21.167081,130.32,-78.53,-0.85,-4120,-58,-827
2019-06-26 15:35:21.188084,130.33,-78.53,-0.84,-4125,-58,-824
2019-06-26 15:35:21.208089,130.33,-78.53,-0.84,-4124,-57,-834
2019-06-26 15:35:21.225092,130.33,-78.53,-0.84,-4128,-62,-840
2019-06-26 15:35:21.245097,130.33,-78.53,-0.84,-4121,-67,-820
2019-06-26 15:35:21.266102,130.30,-78.54,-0.84,-4117,-80,-812
2019-06-26 15:35:21.286106,130.30,-78.54,-0.84,-4126,-74,-818
2019-06-26 15:35:21.307111,130.30,-78.54,-0.84,-4130,-76,-831
2019-06-26 15:35:21.327116,130.31,-78.54,-0.85,-4123,-75,-844
2019-06-26 15:35:21.347121,130.34,-78.54,-0.85,-4123,-74,-842
2019-06-26 15:35:21.368127,130.34,-78.53,-0.85,-4137,-65,-853
2019-06-26 15:35:21.385130,130.34,-78.53,-0.85,-4128,-54,-841
2019-06-26 15:35:21.405133,130.34,-78.54,-0.85,-4126,-58,-836
2019-06-26 15:35:21.426138,130.34,-78.54,-0.85,-4120,-64,-836
2019-06-26 15:35:21.446142,130.33,-78.53,-0.86,-4125,-66,-847
2019-06-26 15:35:21.466147,130.33,-78.54,-0.85,-4132,-73,-835
2019-06-26 15:35:21.487151,130.33,-78.53,-0.86,-4132,-74,-830
2019-06-26 15:35:21.507156,130.33,-78.53,-0.86,-4133,-68,-837
2019-06-26 15:35:21.528160,130.33,-78.53,-0.86,-4129,-65,-831
2019-06-26 15:35:21.548166,130.31,-78.53,-0.85,-4129,-69,-835
2019-06-26 15:35:21.565170,130.31,-78.53,-0.85,-4122,-66,-840
2019-06-26 15:35:21.585174,130.34,-78.53,-0.85,-4130,-67,-834
2019-06-26 15:35:21.606178,130.33,-78.53,-0.86,-4124,-65,-826
2019-06-26 15:35:21.626183,130.30,-78.53,-0.86,-4122,-69,-820
2019-06-26 15:35:21.646187,130.32,-78.53,-0.86,-4128,-67,-816
2019-06-26 15:35:21.667192,130.30,-78.54,-0.86,-4137,-72,-826
2019-06-26 15:35:21.687196,130.30,-78.54,-0.86,-4133,-72,-834
2019-06-26 15:35:21.707201,130.32,-78.53,-0.86,-4128,-76,-829
2019-06-26 15:35:21.728207,130.32,-78.53,-0.86,-4125,-74,-843
2019-06-26 15:35:21.745210,130.32,-78.53,-0.86,-4126,-75,-837
2019-06-26 15:35:21.765214,130.32,-78.54,-0.86,-4123,-74,-828
2019-06-26 15:35:21.786221,130.32,-78.54,-0.86,-4123,-71,-832
2019-06-26 15:35:21.806227,130.32,-78.54,-0.86,-4131,-73,-828
2019-06-26 15:35:21.827232,130.32,-78.54,-0.86,-4127,-76,-828
2019-06-26 15:35:21.847237,130.32,-78.54,-0.86,-4126,-78,-834
2019-06-26 15:35:21.867242,130.31,-78.53,-0.87,-4123,-81,-848
2019-06-26 15:35:21.888246,130.34,-78.53,-0.86,-4120,-69,-852
2019-06-26 15:35:21.905250,130.32,-78.53,-0.86,-4118,-64,-832
2019-06-26 15:35:21.925255,130.32,-78.53,-0.86,-4120,-61,-831
2019-06-26 15:35:21.946260,130.32,-78.53,-0.86,-4124,-67,-828
2019-06-26 15:35:21.966264,130.32,-78.53,-0.86,-4136,-65,-835
2019-06-26 15:35:21.986269,130.32,-78.53,-0.86,-4134,-71,-843
2019-06-26 15:35:22.007274,130.32,-78.53,-0.86,-4125,-79,-831
2019-06-26 15:35:22.027277,130.33,-78.53,-0.86,-4128,-66,-819
2019-06-26 15:35:22.047282,130.33,-78.53,-0.86,-4130,-58,-814
2019-06-26 15:35:22.068287,130.33,-78.54,-0.86,-4132,-56,-818
2019-06-26 15:35:22.085291,130.33,-78.53,-0.86,-4134,-58,-832
2019-06-26 15:35:22.105295,130.33,-78.53,-0.86,-4128,-67,-832
2019-06-26 15:35:22.126299,130.32,-78.53,-0.87,-4126,-75,-838
2019-06-26 15:35:22.146304,130.32,-78.53,-0.87,-4127,-80,-842
2019-06-26 15:35:22.167309,130.32,-78.53,-0.87,-4122,-68,-827
2019-06-26 15:35:22.187313,130.32,-78.53,-0.87,-4132,-65,-825
2019-06-26 15:35:22.207318,130.31,-78.54,-0.87,-4131,-67,-826
2019-06-26 15:35:22.228323,130.31,-78.54,-0.87,-4128,-74,-827
2019-06-26 15:35:22.248328,130.31,-78.54,-0.87,-4133,-67,-824
2019-06-26 15:35:22.265331,130.31,-78.54,-0.87,-4135,-73,-816
2019-06-26 15:35:22.285336,130.29,-78.54,-0.86,-4135,-69,-824
2019-06-26 15:35:22.306340,130.29,-78.54,-0.86,-4130,-67,-831
2019-06-26 15:35:22.326345,130.29,-78.54,-0.86,-4131,-66,-828
2019-06-26 15:35:22.347350,130.28,-78.54,-0.87,-4131,-67,-832
2019-06-26 15:35:22.367354,130.28,-78.54,-0.87,-4138,-68,-831
2019-06-26 15:35:22.387360,130.28,-78.54,-0.87,-4141,-64,-834
2019-06-26 15:35:22.408363,130.28,-78.54,-0.87,-4138,-65,-839
2019-06-26 15:35:22.425367,130.28,-78.54,-0.87,-4144,-60,-848
2019-06-26 15:35:22.445373,130.29,-78.54,-0.87,-4138,-62,-846
2019-06-26 15:35:22.466378,130.31,-78.54,-0.88,-4137,-64,-844
2019-06-26 15:35:22.486382,130.31,-78.54,-0.88,-4143,-65,-847
2019-06-26 15:35:22.507386,130.31,-78.54,-0.87,-4133,-62,-842
2019-06-26 15:35:22.527390,130.31,-78.54,-0.87,-4143,-54,-836
2019-06-26 15:35:22.547395,130.29,-78.54,-0.86,-4139,-61,-831
2019-06-26 15:35:22.567400,130.29,-78.54,-0.86,-4141,-59,-826
2019-06-26 15:35:22.588404,130.29,-78.54,-0.86,-4138,-65,-843
2019-06-26 15:35:22.605408,130.31,-78.54,-0.87,-4141,-70,-848
2019-06-26 15:35:22.625412,130.32,-78.54,-0.87,-4133,-69,-842
2019-06-26 15:35:22.646417,130.32,-78.54,-0.87,-4132,-72,-838
2019-06-26 15:35:22.666422,130.30,-78.54,-0.87,-4127,-68,-822
2019-06-26 15:35:22.686426,130.29,-78.54,-0.86,-4126,-60,-832
2019-06-26 15:35:22.707430,130.31,-78.54,-0.87,-4128,-63,-835
2019-06-26 15:35:22.727435,130.32,-78.54,-0.86,-4132,-61,-830
2019-06-26 15:35:22.748440,130.30,-78.54,-0.86,-4136,-57,-832
2019-06-26 15:35:22.768446,130.29,-78.54,-0.86,-4135,-59,-833
2019-06-26 15:35:22.785450,130.29,-78.54,-0.86,-4139,-59,-834
2019-06-26 15:35:22.806453,130.32,-78.54,-0.86,-4141,-59,-841
2019-06-26 15:35:22.826457,130.32,-78.54,-0.86,-4145,-65,-856
2019-06-26 15:35:22.846462,130.31,-78.54,-0.87,-4143,-60,-843
2019-06-26 15:35:22.867467,130.31,-78.53,-0.87,-4138,-67,-839
2019-06-26 15:35:22.887471,130.31,-78.53,-0.87,-4132,-70,-832
2019-06-26 15:35:22.907476,130.31,-78.54,-0.87,-4136,-72,-823
2019-06-26 15:35:22.928480,130.32,-78.54,-0.86,-4142,-62,-828
2019-06-26 15:35:22.945485,130.30,-78.54,-0.86,-4134,-65,-839
2019-06-26 15:35:22.965489,130.30,-78.54,-0.86,-4132,-67,-836
2019-06-26 15:35:22.986494,130.30,-78.54,-0.86,-4135,-69,-826
2019-06-26 15:35:23.006498,130.27,-78.54,-0.86,-4129,-75,-815
2019-06-26 15:35:23.026503,130.27,-78.54,-0.86,-4128,-70,-836
2019-06-26 15:35:23.047507,130.30,-78.54,-0.86,-4136,-73,-842
2019-06-26 15:35:23.067512,130.30,-78.54,-0.86,-4139,-75,-831
2019-06-26 15:35:23.088517,130.27,-78.54,-0.86,-4129,-67,-826
2019-06-26 15:35:23.108521,130.30,-78.54,-0.86,-4128,-73,-838
2019-06-26 15:35:23.125526,130.27,-78.54,-0.86,-4129,-69,-835
2019-06-26 15:35:23.146530,130.30,-78.54,-0.86,-4133,-64,-844
2019-06-26 15:35:23.166534,130.30,-78.54,-0.86,-4143,-68,-828
2019-06-26 15:35:23.186539,130.27,-78.54,-0.86,-4132,-66,-829
2019-06-26 15:35:23.206543,130.30,-78.54,-0.86,-4132,-70,-835
2019-06-26 15:35:23.227548,130.27,-78.54,-0.86,-4133,-72,-835
2019-06-26 15:35:23.247552,130.27,-78.54,-0.86,-4137,-68,-855
2019-06-26 15:35:23.268557,130.30,-78.54,-0.86,-4129,-69,-832
2019-06-26 15:35:23.285561,130.30,-78.54,-0.86,-4134,-62,-826
2019-06-26 15:35:23.305566,130.27,-78.54,-0.86,-4139,-62,-826
2019-06-26 15:35:23.326570,130.27,-78.54,-0.86,-4136,-64,-840
2019-06-26 15:35:23.346575,130.27,-78.54,-0.86,-4138,-68,-837
2019-06-26 15:35:23.366579,130.27,-78.54,-0.86,-4137,-58,-834
2019-06-26 15:35:23.387584,130.27,-78.54,-0.86,-4131,-59,-843
2019-06-26 15:35:23.407588,130.27,-78.54,-0.86,-4124,-67,-833
2019-06-26 15:35:23.428594,130.27,-78.54,-0.86,-4124,-59,-828
2019-06-26 15:35:23.448598,130.27,-78.54,-0.86,-4124,-56,-845
2019-06-26 15:35:23.465602,130.27,-78.54,-0.86,-4126,-61,-843
2019-06-26 15:35:23.485606,130.30,-78.54,-0.86,-4130,-64,-845
2019-06-26 15:35:23.506611,130.29,-78.54,-0.87,-4133,-77,-839
2019-06-26 15:35:23.526615,130.29,-78.54,-0.87,-4133,-74,-849
2019-06-26 15:35:23.546621,130.29,-78.54,-0.87,-4131,-74,-843
2019-06-26 15:35:23.567625,130.27,-78.54,-0.86,-4132,-64,-840
2019-06-26 15:35:23.587629,130.28,-78.54,-0.86,-4130,-63,-843
2019-06-26 15:35:23.608634,130.28,-78.53,-0.86,-4138,-67,-843
2019-06-26 15:35:23.628638,130.30,-78.53,-0.86,-4138,-68,-840
2019-06-26 15:35:23.645642,130.30,-78.53,-0.86,-4126,-63,-853
2019-06-26 15:35:23.665656,130.30,-78.53,-0.86,-4128,-67,-835
2019-06-26 15:35:23.686665,130.28,-78.53,-0.86,-4132,-73,-828
2019-06-26 15:35:23.706670,130.30,-78.54,-0.86,-4146,-77,-816
2019-06-26 15:35:23.727674,130.28,-78.54,-0.86,-4129,-61,-822
2019-06-26 15:35:23.747678,130.28,-78.54,-0.86,-4132,-56,-834
2019-06-26 15:35:23.768683,130.29,-78.53,-0.85,-4128,-50,-841
2019-06-26 15:35:23.788688,130.28,-78.54,-0.86,-4121,-54,-828
2019-06-26 15:35:23.805692,130.28,-78.54,-0.86,-4123,-66,-828
2019-06-26 15:35:23.825695,130.28,-78.54,-0.86,-4131,-68,-826
2019-06-26 15:35:23.845728,130.28,-78.54,-0.86,-4126,-68,-829
2019-06-26 15:35:23.866749,130.28,-78.54,-0.86,-4123,-71,-838
2019-06-26 15:35:23.886753,130.28,-78.53,-0.86,-4118,-79,-839
2019-06-26 15:35:23.907739,130.28,-78.53,-0.86,-4124,-70,-838
2019-06-26 15:35:23.927744,130.30,-78.53,-0.86,-4125,-63,-840
2019-06-26 15:35:23.947748,130.28,-78.53,-0.86,-4130,-60,-826
2019-06-26 15:35:23.968754,130.29,-78.54,-0.85,-4136,-61,-835
2019-06-26 15:35:23.985759,130.29,-78.53,-0.85,-4128,-59,-837
2019-06-26 15:35:24.005762,130.29,-78.53,-0.85,-4120,-62,-833
2019-06-26 15:35:24.026767,130.31,-78.53,-0.85,-4131,-63,-838
2019-06-26 15:35:24.046771,130.29,-78.53,-0.85,-4117,-62,-831
2019-06-26 15:35:24.067776,130.31,-78.53,-0.85,-4122,-64,-840
2019-06-26 15:35:24.087780,130.29,-78.53,-0.85,-4127,-65,-819
2019-06-26 15:35:24.107785,130.29,-78.54,-0.85,-4129,-61,-821
2019-06-26 15:35:24.127807,130.28,-78.54,-0.86,-4128,-69,-833
2019-06-26 15:35:24.148794,130.30,-78.53,-0.86,-4123,-72,-853
2019-06-26 15:35:24.165816,130.30,-78.53,-0.86,-4124,-65,-850
2019-06-26 15:35:24.185802,130.30,-78.53,-0.86,-4127,-63,-841
2019-06-26 15:35:24.206807,130.29,-78.53,-0.85,-4134,-74,-828
2019-06-26 15:35:24.226830,130.30,-78.53,-0.86,-4123,-67,-833
2019-06-26 15:35:24.247834,130.30,-78.53,-0.86,-4120,-63,-825
2019-06-26 15:35:24.267839,130.30,-78.53,-0.85,-4129,-64,-838
2019-06-26 15:35:24.287825,130.30,-78.53,-0.85,-4132,-59,-827
2019-06-26 15:35:24.308830,130.30,-78.53,-0.85,-4130,-66,-824
2019-06-26 15:35:24.325834,130.30,-78.53,-0.86,-4138,-71,-827
2019-06-26 15:35:24.345840,130.27,-78.54,-0.85,-4128,-73,-831
2019-06-26 15:35:24.366843,130.29,-78.53,-0.85,-4126,-70,-851
2019-06-26 15:35:24.386849,130.29,-78.53,-0.85,-4120,-76,-851
2019-06-26 15:35:24.407852,130.30,-78.53,-0.86,-4120,-81,-838
2019-06-26 15:35:24.427857,130.30,-78.53,-0.86,-4131,-74,-832
2019-06-26 15:35:24.447861,130.30,-78.53,-0.86,-4130,-65,-837
2019-06-26 15:35:24.467866,130.30,-78.53,-0.86,-4130,-63,-844
2019-06-26 15:35:24.488871,130.29,-78.53,-0.85,-4132,-67,-835
2019-06-26 15:35:24.505876,130.30,-78.53,-0.86,-4127,-62,-836
2019-06-26 15:35:24.525879,130.29,-78.53,-0.85,-4123,-58,-845
2019-06-26 15:35:24.546883,130.29,-78.53,-0.85,-4130,-55,-823
2019-06-26 15:35:24.566888,130.29,-78.53,-0.85,-4132,-62,-841
2019-06-26 15:35:24.586893,130.28,-78.53,-0.86,-4124,-68,-844
2019-06-26 15:35:24.607897,130.28,-78.53,-0.86,-4123,-74,-850
2019-06-26 15:35:24.627902,130.30,-78.52,-0.86,-4128,-77,-858
2019-06-26 15:35:24.647906,130.30,-78.52,-0.86,-4130,-68,-854
2019-06-26 15:35:24.668912,130.31,-78.52,-0.85,-4125,-63,-851
2019-06-26 15:35:24.685916,130.31,-78.52,-0.85,-4129,-62,-832
2019-06-26 15:35:24.706919,130.31,-78.52,-0.85,-4124,-65,-826
2019-06-26 15:35:24.726925,130.30,-78.52,-0.86,-4125,-63,-839
2019-06-26 15:35:24.746928,130.30,-78.52,-0.86,-4125,-73,-834
2019-06-26 15:35:24.766934,130.30,-78.52,-0.86,-4124,-75,-838
2019-06-26 15:35:24.787938,130.30,-78.52,-0.86,-4128,-69,-854
2019-06-26 15:35:24.807942,130.32,-78.51,-0.86,-4126,-65,-852
2019-06-26 15:35:24.828947,130.30,-78.52,-0.86,-4124,-55,-833
2019-06-26 15:35:24.845951,130.31,-78.52,-0.85,-4129,-55,-841
2019-06-26 15:35:24.865956,130.31,-78.52,-0.85,-4131,-65,-826
2019-06-26 15:35:24.886960,130.30,-78.52,-0.86,-4128,-63,-840
2019-06-26 15:35:24.906965,130.31,-78.52,-0.85,-4127,-52,-835
2019-06-26 15:35:24.926987,130.30,-78.52,-0.85,-4124,-57,-810
2019-06-26 15:35:24.947974,130.30,-78.52,-0.85,-4122,-67,-820
2019-06-26 15:35:24.967978,130.27,-78.53,-0.85,-4131,-65,-831
2019-06-26 15:35:24.988001,130.29,-78.52,-0.85,-4130,-72,-844
2019-06-26 15:35:25.009006,130.29,-78.52,-0.86,-4131,-73,-848
2019-06-26 15:35:25.026010,130.29,-78.52,-0.86,-4137,-65,-848
2019-06-26 15:35:25.047014,130.29,-78.52,-0.86,-4138,-62,-842
2019-06-26 15:35:25.067019,130.29,-78.52,-0.85,-4147,-75,-818
2019-06-26 15:35:25.087023,130.26,-78.53,-0.86,-4139,-78,-816
2019-06-26 15:35:25.108028,130.28,-78.52,-0.86,-4133,-80,-837
2019-06-26 15:35:25.128033,130.28,-78.52,-0.86,-4125,-74,-835
2019-06-26 15:35:25.148037,130.28,-78.52,-0.86,-4123,-69,-851
2019-06-26 15:35:25.169041,130.28,-78.52,-0.86,-4129,-61,-836
2019-06-26 15:35:25.189046,130.28,-78.52,-0.86,-4128,-63,-840
2019-06-26 15:35:25.206050,130.29,-78.52,-0.85,-4140,-63,-836
2019-06-26 15:35:25.227055,130.28,-78.52,-0.86,-4138,-77,-827
2019-06-26 15:35:25.247059,130.28,-78.52,-0.86,-4140,-75,-854
2019-06-26 15:35:25.267064,130.28,-78.52,-0.86,-4137,-79,-855
2019-06-26 15:35:25.287050,130.28,-78.52,-0.86,-4130,-69,-841
2019-06-26 15:35:25.308055,130.28,-78.52,-0.86,-4131,-65,-833
2019-06-26 15:35:25.328060,130.28,-78.52,-0.86,-4129,-64,-831
2019-06-26 15:35:25.349065,130.28,-78.52,-0.86,-4123,-62,-834
2019-06-26 15:35:25.366068,130.28,-78.52,-0.86,-4126,-58,-837
2019-06-26 15:35:25.386074,130.28,-78.52,-0.86,-4129,-62,-843
